aX,aY,aZ,gX,gY,gZ
-1.544,1.015,-0.188,26.306,89.233,-17.517
-1.620,1.000,-0.216,41.199,104.248,-14.771
-1.689,0.969,-0.243,56.152,120.667,-12.939
-1.708,0.931,-0.274,69.519,138.062,-12.756
-1.719,0.872,-0.305,79.407,155.212,-12.634
-1.753,0.807,-0.339,84.595,171.387,-11.230
-1.788,0.760,-0.350,85.327,186.462,-8.911
-1.761,0.746,-0.365,82.275,200.623,-6.287
-1.707,0.764,-0.361,77.637,212.891,-4.333
-1.617,0.793,-0.360,73.303,223.389,-3.540
-1.579,0.809,-0.358,70.313,232.361,-3.845
-1.570,0.811,-0.372,68.298,242.065,-5.432
-1.533,0.826,-0.380,66.345,253.357,-8.606
-1.458,0.826,-0.424,64.514,265.869,-10.803
-1.269,0.864,-0.481,62.134,276.550,-11.536
-1.028,0.927,-0.491,58.533,281.555,-12.573
-0.827,0.960,-0.483,54.626,280.029,-12.817
-0.636,0.957,-0.489,50.171,273.926,-9.094
-0.505,0.942,-0.470,45.044,263.062,-2.930
-0.426,0.913,-0.458,38.818,250.610,3.967
-0.374,0.859,-0.454,32.166,239.685,9.888
-0.340,0.795,-0.442,24.658,230.896,13.000
-0.290,0.726,-0.444,15.991,225.769,12.329
-0.186,0.709,-0.471,5.676,224.365,8.667
-0.076,0.766,-0.504,-3.662,224.854,4.333
-0.009,0.808,-0.523,-10.010,224.854,0.549
0.063,0.859,-0.499,-12.451,225.708,-1.831
0.134,0.878,-0.464,-10.254,226.990,-3.235
0.227,0.859,-0.440,-5.310,227.966,-2.747
0.334,0.822,-0.415,-0.061,226.624,1.648
0.407,0.741,-0.395,4.944,221.741,10.193
0.456,0.650,-0.373,6.836,214.783,17.761
0.487,0.559,-0.347,4.639,208.191,19.592
0.510,0.510,-0.316,-1.404,203.430,15.625
0.570,0.547,-0.263,-8.728,200.439,8.179
0.631,0.652,-0.197,-14.709,198.181,-0.916
0.699,0.761,-0.132,-16.418,195.618,-7.996
0.760,0.864,-0.070,-12.695,192.139,-11.658
0.815,0.904,-0.019,-4.211,186.218,-10.254
0.871,0.912,0.019,6.409,178.711,-4.883
0.927,0.884,0.073,17.456,169.189,0.244
0.964,0.831,0.129,26.672,158.447,3.052
0.998,0.796,0.186,32.593,147.461,2.991
1.022,0.796,0.242,35.767,136.292,1.709
1.044,0.793,0.291,37.537,125.732,0.793
1.047,0.775,0.332,37.842,115.601,2.319
1.059,0.743,0.374,36.377,106.384,6.409
1.083,0.713,0.417,32.532,97.839,11.414
1.122,0.671,0.456,26.428,89.111,16.418
1.147,0.643,0.490,17.822,79.590,20.386
1.167,0.646,0.522,7.874,68.787,22.949
1.170,0.668,0.548,-2.075,56.519,24.109
1.152,0.711,0.575,-10.132,44.312,25.330
1.142,0.754,0.591,-16.602,32.593,26.245
1.143,0.814,0.594,-20.142,21.851,28.198
1.129,0.843,0.604,-20.325,11.780,31.433
1.114,0.821,0.607,-18.066,2.319,34.912
1.099,0.773,0.602,-15.442,-5.859,37.842
1.082,0.723,0.594,-14.038,-14.099,39.185
1.075,0.682,0.568,-14.526,-23.376,39.368
1.065,0.664,0.531,-16.785,-34.241,38.940
1.021,0.656,0.501,-20.630,-45.959,38.330
0.978,0.665,0.469,-25.635,-56.396,38.147
0.939,0.704,0.432,-30.945,-64.819,38.208
0.899,0.748,0.401,-35.522,-71.960,39.001
0.866,0.768,0.378,-38.513,-78.552,41.260
0.846,0.783,0.356,-40.344,-85.815,43.823
0.814,0.786,0.331,-40.955,-94.299,45.532
0.790,0.791,0.299,-40.283,-104.187,45.471
0.758,0.817,0.266,-38.147,-115.540,43.518
0.699,0.852,0.229,-34.546,-127.014,40.588
0.629,0.876,0.194,-28.931,-136.841,37.964
0.545,0.921,0.172,-21.240,-144.226,36.072
0.484,0.962,0.158,-11.719,-149.475,35.217
0.428,0.989,0.135,-0.977,-153.992,35.889
0.363,0.988,0.111,11.169,-159.058,38.513
0.286,0.956,0.100,23.682,-164.490,40.405
0.226,0.903,0.091,35.156,-168.579,39.978
0.199,0.850,0.066,43.945,-171.631,36.804
0.187,0.819,0.041,49.255,-175.476,31.799
0.174,0.793,0.011,50.720,-180.725,26.489
0.144,0.760,-0.023,48.889,-187.683,23.071
0.074,0.715,-0.062,44.495,-195.740,21.484
-0.026,0.678,-0.101,37.720,-204.163,21.484
-0.141,0.668,-0.130,29.419,-211.731,21.118
-0.282,0.701,-0.134,21.362,-215.942,19.287
-0.415,0.780,-0.105,15.198,-215.637,16.174
-0.506,0.837,-0.075,12.695,-209.717,12.451
-0.504,0.907,-0.052,13.367,-199.463,9.766
-0.457,0.963,-0.050,17.212,-189.026,9.338
-0.395,0.987,-0.055,23.132,-182.373,11.108
-0.356,0.965,-0.055,28.992,-180.420,13.245
-0.342,0.902,-0.063,33.203,-182.312,14.465
-0.360,0.836,-0.067,33.813,-186.462,14.099
-0.422,0.785,-0.057,30.762,-191.895,13.611
-0.479,0.770,-0.054,24.780,-196.045,12.756
-0.538,0.775,-0.058,17.578,-197.998,11.230
-0.577,0.782,-0.065,10.376,-198.303,9.888
-0.611,0.801,-0.067,4.822,-196.716,9.460
-0.603,0.832,-0.069,1.648,-193.359,9.033
-0.589,0.833,-0.069,0.793,-189.270,8.118
-0.549,0.805,-0.089,0.732,-185.913,7.874
-0.513,0.790,-0.122,0.122,-184.265,8.118
-0.549,0.796,-0.120,-1.587,-185.486,8.301
-0.625,0.795,-0.108,-4.272,-187.256,8.240
-0.691,0.796,-0.101,-7.141,-186.462,7.996
-0.714,0.805,-0.102,-9.827,-183.105,7.812
-0.732,0.797,-0.104,-10.925,-179.626,8.850
-0.735,0.797,-0.108,-10.742,-175.903,10.986
-0.718,0.789,-0.137,-8.606,-172.974,12.939
-0.721,0.770,-0.162,-5.432,-171.265,14.160
-0.749,0.735,-0.182,-2.136,-169.373,13.733
-0.773,0.706,-0.213,0.488,-165.710,11.780
-0.784,0.686,-0.240,1.831,-160.095,10.132
-0.795,0.679,-0.250,1.892,-153.992,9.399
-0.797,0.684,-0.256,1.160,-148.376,10.132
-0.812,0.693,-0.246,0.610,-143.616,11.108
-0.841,0.693,-0.242,0.977,-139.343,11.597
-0.866,0.691,-0.228,2.075,-135.010,11.536

-1.634,0.819,-0.353,14.465,119.812,-29.724
-1.685,0.830,-0.370,26.428,130.493,-32.288
-1.669,0.813,-0.395,39.551,142.517,-35.950
-1.578,0.774,-0.388,51.331,154.541,-40.466
-1.485,0.713,-0.372,58.350,165.833,-44.250
-1.448,0.621,-0.393,58.472,175.659,-45.044
-1.450,0.531,-0.440,50.598,182.495,-44.373
-1.415,0.497,-0.472,35.889,185.608,-44.617
-1.368,0.601,-0.489,18.616,185.913,-46.631
-1.318,0.696,-0.483,4.944,185.486,-50.049
-1.265,0.767,-0.475,-2.808,188.049,-53.711
-1.230,0.791,-0.476,-5.493,194.336,-57.068
-1.225,0.771,-0.493,-5.859,203.857,-59.753
-1.145,0.700,-0.506,-6.042,215.759,-61.951
-1.041,0.615,-0.536,-9.521,227.722,-62.927
-0.930,0.549,-0.594,-19.043,238.098,-62.073
-0.779,0.568,-0.634,-34.485,245.667,-60.303
-0.607,0.726,-0.650,-50.720,250.671,-58.716
-0.474,0.910,-0.642,-60.059,252.930,-58.105
-0.414,1.010,-0.621,-59.814,252.869,-57.861
-0.393,1.033,-0.602,-51.392,252.625,-56.030
-0.345,0.956,-0.606,-39.368,254.028,-52.734
-0.280,0.822,-0.618,-29.053,256.714,-47.913
-0.213,0.676,-0.625,-24.719,260.620,-43.152
-0.100,0.560,-0.628,-26.550,265.991,-40.710
0.047,0.499,-0.612,-32.776,270.447,-43.152
0.196,0.509,-0.553,-40.649,271.484,-50.476
0.340,0.575,-0.503,-46.814,269.165,-59.021
0.461,0.615,-0.486,-48.340,260.864,-62.683
0.516,0.620,-0.450,-46.204,245.911,-59.204
0.533,0.610,-0.416,-43.213,227.905,-53.162
0.522,0.607,-0.406,-41.321,210.388,-49.866
0.471,0.619,-0.380,-41.016,196.472,-51.453
0.424,0.663,-0.339,-41.138,187.744,-57.495
0.393,0.747,-0.287,-38.818,184.814,-64.636
0.385,0.824,-0.236,-32.471,187.439,-70.801
0.440,0.882,-0.164,-21.423,192.383,-74.646
0.544,0.974,-0.088,-6.592,195.862,-77.576
0.703,1.049,-0.058,11.902,193.481,-78.186
0.833,1.063,-0.051,33.936,180.420,-72.388
0.869,1.002,-0.036,54.260,157.898,-60.730
0.803,0.876,-0.029,68.298,133.362,-48.584
0.732,0.727,-0.037,72.021,114.258,-41.138
0.657,0.620,-0.041,64.697,103.271,-37.659
0.635,0.587,-0.038,49.561,99.792,-35.034
0.643,0.624,-0.013,31.921,100.342,-32.349
0.672,0.703,0.028,15.747,101.929,-30.212
0.717,0.799,0.070,3.662,102.112,-29.175
0.747,0.888,0.110,-2.380,100.098,-28.442
0.782,0.983,0.145,-3.174,95.154,-25.146
0.811,1.024,0.164,0.122,86.548,-17.517
0.798,1.009,0.189,5.920,74.341,-7.751
0.770,0.951,0.197,10.620,61.951,0.000
0.725,0.897,0.201,12.512,51.880,4.578
0.685,0.861,0.213,11.292,46.021,6.409
0.677,0.855,0.224,8.667,43.396,7.324
0.693,0.863,0.242,5.737,42.236,7.690
0.708,0.880,0.271,3.052,40.039,7.812
0.733,0.911,0.296,1.221,36.438,8.240
0.751,0.921,0.310,0.549,31.189,10.254
0.745,0.905,0.327,0.488,23.987,14.038
0.745,0.878,0.327,-0.122,16.296,18.555
0.735,0.842,0.327,-2.075,9.033,22.339
0.722,0.826,0.334,-5.310,2.625,24.719
0.713,0.828,0.335,-9.399,-2.075,25.513
0.712,0.856,0.338,-12.817,-5.981,25.330
0.717,0.897,0.337,-14.709,-10.498,25.146
0.724,0.924,0.327,-14.832,-16.052,26.245
0.727,0.943,0.319,-13.428,-23.071,27.588
0.730,0.952,0.302,-11.292,-31.128,28.748
0.708,0.937,0.275,-9.033,-39.612,30.151
0.678,0.915,0.251,-7.324,-47.241,32.471
0.667,0.909,0.237,-7.202,-53.223,35.034
0.672,0.907,0.222,-7.874,-59.265,37.720
0.683,0.921,0.209,-8.362,-67.200,40.527
0.691,0.941,0.196,-8.179,-77.820,42.969
0.682,0.958,0.182,-6.592,-90.515,45.349
0.655,0.956,0.164,-3.784,-104.248,47.729
0.597,0.945,0.161,-0.183,-117.371,50.476
0.540,0.931,0.159,4.395,-128.052,53.955
0.496,0.903,0.147,8.911,-136.719,58.411
0.455,0.890,0.152,12.939,-143.494,63.965
0.428,0.868,0.147,16.846,-149.170,68.298
0.394,0.844,0.145,19.775,-154.724,71.960
0.362,0.835,0.129,22.278,-159.546,75.317
0.338,0.818,0.118,24.963,-163.940,77.332
0.324,0.789,0.105,26.428,-168.579,78.186
0.327,0.774,0.070,26.855,-173.889,78.979
0.294,0.749,0.051,25.330,-180.664,79.407
0.226,0.718,0.050,21.851,-188.171,79.468
0.132,0.716,0.066,16.113,-194.336,78.796
0.034,0.724,0.046,9.949,-198.364,78.125
-0.078,0.726,0.033,4.700,-200.745,77.881
-0.197,0.735,0.039,0.916,-199.890,76.416
-0.273,0.734,0.031,-1.648,-193.726,73.181
-0.267,0.718,0.001,-4.395,-184.021,69.153
-0.195,0.719,-0.039,-7.446,-175.476,66.101
-0.110,0.746,-0.070,-10.986,-171.875,63.721
-0.094,0.790,-0.090,-14.038,-174.866,61.768
-0.159,0.830,-0.106,-14.893,-181.030,60.120
-0.260,0.860,-0.130,-13.672,-186.584,58.105
-0.388,0.892,-0.145,-10.010,-188.416,55.786
-0.491,0.896,-0.143,-4.700,-184.937,53.772
-0.545,0.870,-0.147,0.977,-176.208,52.307
-0.545,0.832,-0.151,6.653,-164.368,51.758
-0.476,0.797,-0.148,10.559,-153.503,50.720
-0.403,0.768,-0.155,12.268,-146.973,48.767
-0.366,0.742,-0.169,11.841,-146.484,46.326
-0.376,0.748,-0.189,9.827,-150.391,43.457
-0.457,0.762,-0.213,7.690,-155.457,41.077
-0.550,0.767,-0.231,6.348,-158.325,39.490
-0.613,0.759,-0.248,5.676,-156.982,38.330
-0.640,0.726,-0.261,5.493,-152.039,37.598
-0.672,0.690,-0.263,5.188,-145.691,36.560
-0.684,0.658,-0.263,4.395,-137.939,33.630
-0.661,0.652,-0.262,3.052,-130.371,28.748
-0.649,0.647,-0.259,1.953,-124.695,22.766
-0.656,0.645,-0.249,0.671,-121.216,17.456
-0.645,0.662,-0.253,-0.793,-119.568,13.489

-1.307,1.052,-0.291,46.692,68.176,-37.903
-1.335,1.042,-0.317,47.180,78.552,-35.889
-1.347,1.035,-0.337,44.556,90.210,-33.142
-1.337,1.077,-0.350,41.016,102.051,-30.212
-1.293,1.145,-0.342,39.429,113.953,-28.687
-1.229,1.217,-0.333,41.443,125.244,-27.832
-1.164,1.271,-0.318,46.936,135.620,-25.146
-1.093,1.321,-0.293,54.871,145.691,-19.470
-1.033,1.339,-0.255,65.491,155.396,-11.230
-0.967,1.317,-0.240,77.209,164.307,-2.502
-0.895,1.250,-0.215,88.562,171.753,5.920
-0.839,1.144,-0.206,97.595,177.979,11.780
-0.806,1.045,-0.173,102.234,182.861,14.893
-0.766,0.959,-0.148,102.600,187.744,16.296
-0.722,0.882,-0.123,98.755,191.711,17.578
-0.660,0.804,-0.106,90.576,194.336,19.836
-0.608,0.733,-0.094,79.224,194.275,23.193
-0.562,0.668,-0.084,64.087,191.467,25.330
-0.541,0.610,-0.082,46.265,186.890,25.757
-0.535,0.577,-0.078,27.100,181.763,23.987
-0.525,0.613,-0.085,8.667,177.368,20.264
-0.525,0.668,-0.088,-5.005,173.584,15.442
-0.534,0.739,-0.099,-13.611,170.898,10.681
-0.563,0.797,-0.113,-17.029,169.678,7.446
-0.579,0.815,-0.124,-15.564,169.617,5.005
-0.558,0.811,-0.147,-12.024,170.898,3.052
-0.517,0.781,-0.175,-8.911,172.363,2.380
-0.469,0.731,-0.197,-7.385,172.913,2.197
-0.444,0.668,-0.201,-8.789,172.791,1.038
-0.423,0.623,-0.201,-13.550,173.035,-2.075
-0.407,0.581,-0.212,-20.935,174.255,-5.981
-0.404,0.574,-0.218,-30.457,175.842,-11.169
-0.388,0.589,-0.219,-40.466,178.955,-17.639
-0.360,0.623,-0.210,-49.255,183.289,-24.902
-0.298,0.690,-0.198,-56.152,189.148,-31.921
-0.200,0.745,-0.219,-60.425,193.848,-35.645
-0.143,0.809,-0.210,-61.462,193.481,-35.156
-0.099,0.846,-0.183,-60.059,189.087,-31.311
-0.062,0.835,-0.165,-57.068,182.251,-26.123
-0.064,0.813,-0.152,-54.626,173.950,-23.132
-0.070,0.817,-0.125,-53.467,166.504,-24.048
-0.053,0.857,-0.106,-52.673,162.354,-29.114
-0.029,0.924,-0.090,-50.171,161.194,-36.621
0.003,1.016,-0.075,-44.434,161.682,-43.152
0.077,1.111,-0.046,-34.607,162.598,-45.532
0.155,1.176,-0.029,-20.508,161.133,-41.382
0.238,1.194,-0.010,-4.395,156.067,-31.433
0.302,1.155,-0.012,11.292,147.217,-16.724
0.353,1.061,-0.023,24.292,135.681,-2.808
0.354,0.960,-0.018,31.067,123.901,5.432
0.358,0.881,-0.014,31.494,114.441,7.141
0.379,0.854,-0.003,27.832,107.666,5.615
0.399,0.855,0.017,21.973,102.356,4.944
0.419,0.858,0.040,16.052,98.389,7.202
0.425,0.846,0.064,10.498,95.947,12.207
0.457,0.830,0.080,4.578,94.482,19.104
0.503,0.829,0.099,-1.221,93.079,25.208
0.550,0.855,0.123,-5.737,90.454,28.503
0.583,0.893,0.150,-8.179,85.876,29.846
0.598,0.920,0.179,-7.507,79.834,30.823
0.611,0.937,0.199,-3.845,73.181,32.227
0.626,0.923,0.219,1.587,66.650,33.203
0.632,0.897,0.242,7.935,60.242,33.447
0.627,0.853,0.266,12.939,54.749,33.752
0.630,0.809,0.286,15.869,50.598,34.424
0.638,0.771,0.308,16.357,47.729,35.156
0.657,0.738,0.331,14.709,44.739,35.583
0.666,0.698,0.345,11.169,41.321,36.011
0.662,0.670,0.359,5.981,37.231,36.560
0.662,0.660,0.374,-0.549,33.325,36.621
0.669,0.674,0.392,-7.263,30.090,35.645
0.677,0.708,0.417,-13.672,26.672,34.424
0.680,0.748,0.435,-18.677,22.583,33.081
0.665,0.781,0.458,-21.790,17.883,31.799
0.648,0.812,0.472,-22.766,13.123,30.823
0.648,0.854,0.483,-21.790,8.789,29.663
0.649,0.882,0.487,-19.043,3.540,28.564
0.641,0.892,0.490,-14.954,-2.258,27.954
0.641,0.879,0.479,-10.803,-8.789,27.527
0.625,0.843,0.465,-8.179,-16.785,27.283
0.600,0.810,0.445,-8.240,-25.085,27.588
0.584,0.804,0.417,-10.864,-32.776,28.076
0.567,0.821,0.386,-15.381,-40.588,28.564
0.535,0.844,0.364,-20.386,-48.340,29.541
0.509,0.889,0.343,-24.658,-56.030,30.701
0.490,0.964,0.343,-26.489,-63.538,31.616
0.477,1.033,0.339,-24.475,-71.106,31.860
0.464,1.092,0.336,-18.005,-79.590,31.738
0.449,1.127,0.323,-7.812,-88.989,32.349
0.431,1.147,0.297,4.578,-99.182,34.546
0.391,1.095,0.260,18.799,-109.863,38.147
0.346,1.024,0.226,31.067,-119.080,42.603
0.327,0.967,0.175,39.307,-125.793,47.058
0.298,0.920,0.130,43.640,-131.470,50.537
0.234,0.914,0.119,44.189,-137.146,52.795
0.159,0.924,0.132,42.969,-140.747,53.284
0.110,0.948,0.145,41.992,-141.602,52.490
0.088,0.971,0.160,42.969,-141.785,50.964
0.074,0.984,0.177,46.387,-143.433,49.561
0.070,0.978,0.180,52.368,-146.790,48.218
0.079,0.957,0.174,59.631,-152.283,47.241
0.073,0.918,0.162,66.406,-158.875,46.570
0.028,0.889,0.139,71.655,-165.466,46.631
-0.021,0.871,0.104,74.219,-171.143,46.814
-0.075,0.842,0.083,74.585,-175.659,47.363
-0.172,0.838,0.055,73.181,-178.162,47.607
-0.265,0.801,0.040,70.923,-177.856,46.875
-0.308,0.796,0.028,67.749,-175.110,45.410
-0.335,0.795,0.032,65.002,-171.326,42.297
-0.350,0.777,0.045,62.805,-167.480,38.391
-0.325,0.750,0.039,60.913,-164.185,34.363
-0.281,0.745,0.034,58.716,-163.025,30.396
-0.263,0.736,0.034,56.824,-164.734,27.100
-0.274,0.708,0.023,54.138,-168.518,23.987
-0.330,0.664,-0.008,49.988,-173.706,21.545
-0.425,0.616,-0.034,43.762,-178.955,19.043
-0.513,0.599,-0.057,35.461,-182.190,16.357
-0.575,0.607,-0.080,25.879,-182.312,12.207
-0.644,0.611,-0.092,16.113,-180.054,7.263

-1.172,1.052,-0.301,32.288,152.649,-36.011
-1.107,1.078,-0.317,35.461,161.987,-35.706
-1.040,1.090,-0.334,37.598,168.884,-30.823
-0.989,1.075,-0.358,38.696,171.997,-20.935
-0.938,1.026,-0.380,38.391,171.875,-8.606
-0.920,0.987,-0.390,35.156,169.006,0.549
-0.936,0.937,-0.407,29.175,166.565,4.639
-0.967,0.905,-0.437,20.264,166.809,3.845
-1.003,0.893,-0.469,9.827,171.204,0.305
-1.007,0.918,-0.492,-0.671,179.565,-4.517
-0.994,0.939,-0.515,-9.277,192.627,-10.559
-0.917,0.980,-0.534,-16.663,210.449,-17.761
-0.788,1.045,-0.537,-21.118,230.164,-23.437
-0.651,1.043,-0.559,-21.912,246.216,-22.705
-0.546,1.004,-0.563,-20.264,255.127,-15.076
-0.463,0.927,-0.543,-18.982,258.423,-5.676
-0.383,0.823,-0.521,-20.203,258.240,-0.244
-0.326,0.704,-0.511,-24.963,256.531,-0.427
-0.252,0.611,-0.526,-33.325,255.371,-7.019
-0.197,0.585,-0.531,-44.250,254.639,-18.494
-0.171,0.621,-0.533,-54.138,254.395,-31.189
-0.130,0.690,-0.538,-59.448,256.165,-41.443
-0.070,0.785,-0.510,-58.899,258.301,-47.302
0.006,0.851,-0.484,-51.086,257.812,-48.096
0.142,0.885,-0.474,-37.964,253.113,-45.105
0.272,0.887,-0.485,-22.888,242.126,-41.199
0.321,0.846,-0.503,-8.301,224.670,-39.795
0.301,0.804,-0.512,2.747,206.299,-42.603
0.239,0.790,-0.521,11.414,192.749,-47.913
0.202,0.787,-0.536,18.799,186.401,-52.734
0.222,0.769,-0.540,25.879,185.669,-54.626
0.260,0.744,-0.526,31.555,186.523,-53.162
0.307,0.711,-0.491,34.485,186.462,-49.866
0.371,0.671,-0.455,34.607,184.631,-46.387
0.446,0.673,-0.413,32.227,180.176,-43.457
0.505,0.714,-0.371,28.870,172.363,-41.687
0.540,0.780,-0.324,26.611,162.231,-39.612
0.566,0.856,-0.282,26.917,151.733,-36.865
0.581,0.898,-0.247,30.273,141.968,-32.349
0.594,0.879,-0.217,35.278,133.362,-25.635
0.613,0.821,-0.187,39.063,127.075,-18.433
0.634,0.761,-0.159,39.734,123.535,-12.268
0.662,0.730,-0.128,37.109,121.338,-8.118
0.707,0.732,-0.091,32.349,119.629,-5.249
0.755,0.764,-0.051,27.283,116.577,-2.380
0.798,0.796,-0.001,23.437,111.389,1.953
0.832,0.823,0.045,20.935,104.126,6.531
0.843,0.824,0.087,19.348,95.764,11.047
0.845,0.808,0.123,17.883,87.341,16.113
0.839,0.782,0.151,15.747,79.529,20.935
0.832,0.760,0.179,11.963,72.937,25.269
0.826,0.752,0.203,7.141,68.298,28.809
0.832,0.756,0.232,2.258,65.613,31.006
0.852,0.765,0.258,-2.441,63.782,32.654
0.877,0.778,0.294,-6.409,60.852,34.668
0.893,0.777,0.321,-10.254,55.847,36.560
0.897,0.788,0.348,-13.672,48.828,38.147
0.891,0.821,0.367,-16.296,39.978,37.964
0.872,0.869,0.384,-17.029,30.457,36.194
0.850,0.910,0.397,-15.381,21.240,33.691
0.832,0.935,0.402,-11.536,12.756,31.311
0.826,0.950,0.407,-6.409,5.249,29.358
0.826,0.954,0.412,-1.648,-1.587,27.222
0.833,0.971,0.413,3.113,-8.667,24.841
0.838,1.010,0.406,7.996,-17.090,22.095
0.848,1.074,0.393,13.611,-26.489,19.531
0.843,1.125,0.376,20.691,-36.621,17.822
0.807,1.149,0.358,28.870,-47.668,17.578
0.766,1.128,0.332,36.804,-57.434,19.104
0.734,1.079,0.304,42.358,-65.674,22.461
0.720,1.009,0.279,44.312,-72.998,27.588
0.697,0.952,0.264,41.992,-81.360,33.447
0.660,0.894,0.252,36.255,-90.515,38.391
0.626,0.871,0.244,27.710,-98.999,41.321
0.596,0.892,0.240,18.494,-106.506,42.786
0.563,0.947,0.233,11.475,-113.770,44.189
0.553,0.995,0.228,9.155,-121.216,45.837
0.542,1.018,0.203,11.230,-130.066,48.035
0.514,1.024,0.178,15.930,-140.076,50.903
0.479,1.007,0.140,22.217,-150.757,54.382
0.412,0.989,0.108,28.564,-160.828,57.800
0.373,0.976,0.070,35.156,-168.762,59.692
0.340,0.952,0.036,41.870,-175.659,59.753
0.317,0.925,-0.006,48.340,-182.556,59.631
0.281,0.875,-0.058,54.443,-190.491,59.753
0.199,0.828,-0.091,59.448,-198.730,59.387
0.126,0.780,-0.126,63.110,-203.918,57.251
0.065,0.751,-0.165,65.430,-205.994,54.260
0.026,0.738,-0.194,66.650,-206.238,51.575
0.003,0.771,-0.208,68.054,-205.811,49.377
-0.017,0.824,-0.210,70.557,-205.444,47.913
-0.049,0.865,-0.220,75.562,-205.627,46.936
-0.108,0.871,-0.213,82.275,-205.688,46.143
-0.151,0.855,-0.219,89.539,-204.468,45.166
-0.172,0.822,-0.230,95.520,-203.308,43.884
-0.225,0.781,-0.234,99.609,-203.735,42.847
-0.295,0.709,-0.243,100.647,-205.444,41.443
-0.364,0.665,-0.234,98.206,-206.543,39.124
-0.417,0.636,-0.205,93.018,-206.604,36.316
-0.418,0.627,-0.187,86.487,-205.017,33.997
-0.388,0.629,-0.195,79.895,-204.163,33.142
-0.391,0.627,-0.201,74.036,-205.139,33.264
-0.389,0.594,-0.221,68.481,-206.360,33.081
-0.443,0.532,-0.231,61.829,-207.764,30.334
-0.515,0.464,-0.227,51.697,-207.458,24.048
-0.579,0.468,-0.223,37.354,-203.613,15.076
-0.644,0.522,-0.225,21.667,-198.608,7.935
-0.688,0.579,-0.228,7.629,-193.726,5.615
-0.728,0.645,-0.206,-1.953,-189.941,7.080
-0.764,0.693,-0.157,-6.958,-185.974,8.240
-0.769,0.714,-0.140,-8.667,-181.091,9.155
-0.760,0.726,-0.125,-6.897,-175.720,9.583
-0.757,0.733,-0.130,-3.357,-170.654,8.850
-0.741,0.733,-0.134,1.831,-165.649,5.371
-0.748,0.717,-0.162,7.507,-161.499,0.610
-0.774,0.711,-0.160,12.634,-157.532,-3.723
-0.803,0.710,-0.149,16.663,-152.527,-6.836
-0.794,0.684,-0.157,19.226,-146.484,-8.057
-0.787,0.684,-0.161,20.569,-141.907,-6.714

-1.562,0.847,-0.189,36.804,101.807,-2.625
-1.610,0.848,-0.229,40.222,106.384,1.343
-1.640,0.839,-0.273,43.701,111.572,3.418
-1.632,0.821,-0.332,46.570,118.103,2.747
-1.586,0.781,-0.384,47.241,125.793,-0.305
-1.506,0.766,-0.427,44.006,134.766,-1.892
-1.436,0.826,-0.459,37.048,142.944,1.404
-1.518,0.735,-0.560,27.771,149.780,9.277
-1.543,0.923,-0.604,18.250,157.837,15.991
-1.583,0.970,-0.668,13.611,169.617,18.066
-1.492,1.110,-0.704,14.038,183.899,16.541
-1.449,1.123,-0.737,20.325,199.280,13.794
-1.359,1.089,-0.764,27.649,215.820,11.230
-1.307,0.981,-0.786,32.715,232.910,9.094
-1.210,0.891,-0.771,32.776,250.671,4.395
-1.012,0.876,-0.797,26.245,269.104,-3.540
-0.687,0.937,-0.834,15.686,280.884,-8.789
-0.492,1.038,-0.839,5.432,281.982,-7.385
-0.453,1.087,-0.821,-1.038,275.635,-1.221
-0.439,1.088,-0.800,-4.578,270.752,6.104
-0.427,1.007,-0.799,-6.409,270.508,9.827
-0.397,0.848,-0.802,-9.766,273.743,8.423
-0.324,0.711,-0.810,-17.273,279.358,3.723
-0.227,0.606,-0.807,-28.931,285.889,-4.700
-0.099,0.562,-0.784,-41.626,290.649,-17.090
0.085,0.631,-0.687,-53.345,292.297,-31.372
0.291,0.752,-0.660,-60.913,288.391,-37.292
0.451,0.842,-0.681,-59.570,275.208,-26.001
0.485,0.838,-0.660,-51.819,254.150,-9.766
0.443,0.504,-0.662,-46.143,232.910,-5.493
0.280,0.625,-0.534,-49.988,216.553,-15.137
0.261,0.688,-0.570,-52.368,214.905,-22.888
0.284,0.716,-0.565,-50.903,219.971,-24.536
0.372,0.781,-0.521,-46.265,225.525,-25.085
0.498,0.841,-0.485,-38.086,228.821,-27.405
0.611,0.935,-0.419,-26.794,225.464,-27.649
0.688,1.026,-0.349,-10.925,215.454,-23.193
0.742,1.052,-0.303,7.751,201.538,-15.198
0.739,0.998,-0.278,26.794,186.523,-6.592
0.715,0.885,-0.246,40.527,173.035,0.244
0.710,0.789,-0.210,46.570,164.001,6.226
0.739,0.721,-0.151,45.471,158.325,12.085
0.769,0.684,-0.081,39.124,154.114,17.822
0.805,0.650,-0.014,28.931,150.452,22.827
0.830,0.636,0.057,16.113,146.301,28.320
0.856,0.646,0.130,2.747,141.907,33.691
0.878,0.687,0.202,-8.484,136.963,37.476
0.898,0.739,0.270,-16.846,131.287,40.161
0.913,0.800,0.338,-21.301,125.122,42.297
0.918,0.837,0.408,-21.362,118.225,44.312
0.901,0.842,0.474,-18.188,111.023,45.898
0.889,0.819,0.529,-13.550,104.553,46.570
0.881,0.795,0.591,-9.155,99.304,45.044
0.873,0.764,0.652,-5.981,94.666,41.931
0.889,0.741,0.702,-4.395,90.088,38.696
0.905,0.728,0.748,-4.089,84.351,35.645
0.916,0.722,0.793,-4.761,76.660,33.203
0.926,0.724,0.828,-5.981,67.871,30.823
0.924,0.737,0.850,-7.812,57.495,28.320
0.917,0.758,0.869,-9.338,46.631,25.085
0.913,0.784,0.884,-10.193,36.255,21.790
0.916,0.792,0.894,-10.193,25.940,19.226
0.917,0.805,0.899,-9.888,14.954,16.724
0.911,0.806,0.897,-9.460,3.235,14.038
0.886,0.795,0.888,-9.216,-8.545,11.536
0.856,0.777,0.872,-10.376,-20.203,9.644
0.830,0.778,0.855,-12.878,-30.945,7.874
0.819,0.803,0.834,-16.357,-40.527,5.615
0.815,0.836,0.803,-19.348,-49.988,3.723
0.801,0.862,0.766,-21.057,-60.059,2.991
0.781,0.882,0.719,-21.179,-70.679,2.747
0.754,0.905,0.663,-20.691,-81.299,2.563
0.717,0.945,0.623,-19.592,-91.125,1.770
0.684,0.990,0.584,-16.968,-99.548,0.183
0.672,1.032,0.544,-12.451,-106.689,-0.793
0.658,1.047,0.504,-6.531,-113.708,-0.488
0.649,1.025,0.448,0.000,-121.826,0.732
0.630,0.983,0.396,6.165,-130.920,1.770
0.604,0.939,0.334,10.376,-140.442,2.258
0.564,0.898,0.267,12.024,-149.963,2.441
0.498,0.869,0.211,11.536,-158.325,2.991
0.448,0.868,0.163,9.155,-163.574,3.845
0.422,0.892,0.116,6.042,-166.138,4.456
0.403,0.927,0.073,3.601,-168.274,5.737
0.389,0.957,0.029,3.357,-171.326,7.690
0.373,0.979,-0.014,5.371,-175.964,9.399
0.337,0.986,-0.053,9.521,-181.702,10.620
0.263,0.969,-0.093,15.259,-186.829,11.047
0.182,0.931,-0.132,21.301,-189.392,11.536
0.128,0.920,-0.170,26.001,-187.561,12.146
0.120,0.928,-0.209,29.358,-183.472,12.451
0.105,0.951,-0.219,32.349,-179.504,13.245
0.089,0.964,-0.227,35.767,-176.575,15.259
0.056,0.958,-0.232,39.246,-174.622,18.066
0.024,0.914,-0.229,42.419,-173.340,21.179
0.004,0.866,-0.226,44.128,-172.302,23.376
0.015,0.826,-0.238,43.945,-172.302,23.804
0.023,0.807,-0.251,42.664,-174.805,22.949
0.025,0.823,-0.266,41.565,-179.687,21.240
0.010,0.861,-0.283,42.419,-186.279,20.081
-0.043,0.866,-0.300,45.349,-193.115,19.958
-0.149,0.861,-0.305,49.744,-198.242,20.813
-0.262,0.841,-0.294,53.894,-199.036,22.034
-0.347,0.814,-0.284,57.007,-194.153,23.132
-0.396,0.767,-0.276,58.228,-184.204,24.719
-0.387,0.726,-0.274,57.129,-172.791,26.794
-0.329,0.687,-0.261,53.955,-163.147,28.137
-0.258,0.652,-0.260,48.889,-158.081,27.771
-0.226,0.623,-0.281,42.542,-158.875,25.574
-0.254,0.588,-0.301,34.912,-165.283,21.973
-0.301,0.597,-0.318,26.733,-174.744,18.555
-0.383,0.629,-0.338,19.531,-184.570,14.771
-0.525,0.663,-0.331,14.832,-192.444,10.315
-0.659,0.706,-0.290,12.329,-194.275,5.127
-0.733,0.761,-0.253,12.085,-187.927,0.122
-0.719,0.800,-0.234,13.977,-175.659,-2.625
-0.630,0.821,-0.236,17.090,-162.781,-0.427
-0.528,0.831,-0.240,20.630,-154.236,4.761
-0.474,0.796,-0.246,23.743,-151.611,9.705

-1.479,0.967,-0.263,1.160,68.665,-36.194
-1.545,0.986,-0.293,10.986,78.918,-32.593
-1.583,0.967,-0.314,22.461,89.111,-28.198
-1.575,0.915,-0.337,33.752,99.304,-24.353
-1.586,0.820,-0.365,42.908,108.276,-20.996
-1.604,0.723,-0.406,48.401,116.516,-19.165
-1.608,0.714,-0.463,50.110,124.023,-19.958
-1.599,0.740,-0.503,50.720,130.432,-23.254
-1.572,0.781,-0.529,51.025,137.268,-27.161
-1.476,0.845,-0.553,50.110,145.752,-29.602
-1.408,0.858,-0.594,47.302,154.480,-28.381
-1.385,0.841,-0.616,41.809,163.696,-22.949
-1.383,0.793,-0.625,33.508,174.133,-16.968
-1.382,0.733,-0.635,23.071,186.462,-14.832
-1.349,0.702,-0.636,11.047,199.036,-16.846
-1.232,0.697,-0.604,-0.183,209.961,-22.644
-1.026,0.800,-0.573,-8.728,217.651,-31.311
-0.829,0.934,-0.555,-11.108,219.910,-39.612
-0.692,1.020,-0.529,-7.324,216.980,-45.593
-0.585,1.062,-0.522,0.610,212.097,-46.936
-0.541,1.055,-0.532,8.911,206.970,-44.189
-0.557,1.010,-0.555,13.916,204.163,-39.246
-0.535,0.983,-0.575,14.893,204.773,-35.095
-0.446,0.995,-0.591,12.451,207.458,-33.813
-0.370,0.939,-0.606,8.789,210.693,-35.645
-0.370,0.862,-0.615,2.319,214.050,-39.307
-0.302,0.830,-0.623,-5.920,219.421,-42.358
-0.164,0.796,-0.645,-15.259,225.281,-44.312
-0.015,0.769,-0.684,-26.428,228.271,-44.128
0.167,0.822,-0.730,-37.659,226.440,-39.978
0.285,0.976,-0.778,-45.105,218.689,-32.410
0.319,1.146,-0.811,-43.823,206.970,-25.024
0.270,1.234,-0.819,-33.325,197.327,-22.095
0.209,1.248,-0.829,-16.602,194.153,-22.156
0.175,1.208,-0.829,1.282,197.937,-21.851
0.156,1.125,-0.813,17.517,207.275,-19.836
0.200,1.017,-0.789,29.419,220.093,-16.968
0.323,0.918,-0.756,35.339,232.544,-13.062
0.483,0.857,-0.715,35.889,239.746,-8.179
0.592,0.851,-0.641,33.386,239.441,-3.113
0.678,0.865,-0.562,29.358,232.361,1.404
0.736,0.911,-0.497,25.940,221.497,6.287
0.744,0.935,-0.439,23.315,208.740,13.184
0.696,0.950,-0.376,21.790,198.486,23.010
0.679,0.918,-0.318,20.264,193.970,32.410
0.697,0.881,-0.261,17.578,194.275,39.490
0.751,0.865,-0.201,14.038,196.472,43.884
0.814,0.869,-0.122,10.803,197.937,46.082
0.880,0.884,-0.031,9.216,196.350,46.326
0.929,0.916,0.087,10.742,191.162,46.082
0.969,0.932,0.219,16.113,182.556,46.875
0.994,0.919,0.337,24.170,171.204,49.316
1.023,0.885,0.437,33.936,158.997,51.575
1.036,0.817,0.531,43.213,145.447,53.284
1.034,0.710,0.605,49.805,131.592,53.772
1.008,0.610,0.684,52.246,118.408,53.284
1.000,0.506,0.746,49.805,106.506,50.842
0.991,0.430,0.790,42.725,95.398,47.546
0.978,0.384,0.822,31.860,83.862,44.678
0.966,0.378,0.848,18.677,71.838,42.419
0.951,0.393,0.868,5.188,58.716,40.039
0.930,0.442,0.891,-6.653,45.227,36.499
0.918,0.512,0.900,-16.663,32.288,31.555
0.912,0.593,0.900,-22.888,19.348,26.733
0.903,0.670,0.888,-25.269,5.920,22.583
0.883,0.735,0.870,-23.926,-7.263,18.677
0.856,0.767,0.846,-20.020,-20.203,14.954
0.835,0.778,0.813,-15.076,-33.020,11.658
0.812,0.776,0.775,-10.437,-45.288,8.484
0.788,0.768,0.729,-6.775,-57.312,5.493
0.759,0.750,0.672,-5.127,-69.702,3.052
0.733,0.754,0.604,-5.188,-81.848,1.221
0.704,0.768,0.534,-6.897,-92.834,-0.366
0.662,0.788,0.477,-9.888,-103.210,-0.366
0.618,0.790,0.423,-13.062,-112.366,0.916
0.578,0.787,0.373,-16.724,-119.995,2.625
0.546,0.793,0.323,-20.752,-126.770,4.211
0.523,0.804,0.273,-24.536,-133.301,5.188
0.510,0.831,0.214,-27.649,-140.625,6.042
0.497,0.881,0.151,-29.236,-149.780,6.531
0.466,0.944,0.102,-28.748,-159.668,7.141
0.437,0.982,0.047,-24.902,-170.044,9.399
0.386,1.000,-0.000,-18.372,-179.871,11.780
0.299,1.019,-0.030,-10.193,-187.744,12.634
0.229,1.018,-0.066,-1.892,-191.528,11.841
0.169,0.993,-0.115,6.836,-192.261,11.230
0.104,0.951,-0.152,14.893,-190.369,13.245
0.086,0.901,-0.195,20.203,-185.669,17.761
0.094,0.864,-0.237,22.034,-180.786,22.217
0.100,0.840,-0.259,20.874,-178.162,24.719
0.115,0.831,-0.276,17.944,-177.856,25.330
0.097,0.849,-0.295,14.343,-180.359,24.658
0.055,0.854,-0.312,11.414,-184.753,23.499
-0.002,0.865,-0.319,9.399,-189.636,23.376
-0.048,0.882,-0.330,9.277,-193.420,22.949
-0.087,0.904,-0.343,10.986,-195.862,21.729
-0.145,0.916,-0.354,14.343,-196.838,20.874
-0.204,0.907,-0.356,19.592,-196.167,20.569
-0.252,0.891,-0.355,24.536,-192.688,20.081
-0.284,0.884,-0.353,28.748,-187.134,19.226
-0.288,0.871,-0.358,30.945,-180.298,18.677
-0.278,0.858,-0.362,31.372,-175.049,19.531
-0.278,0.831,-0.366,30.579,-173.279,21.667
-0.305,0.801,-0.372,28.442,-174.561,23.743
-0.354,0.764,-0.364,25.635,-177.063,24.109
-0.390,0.749,-0.356,22.522,-178.650,22.278
-0.424,0.742,-0.350,19.104,-179.443,18.799
-0.456,0.750,-0.343,15.869,-178.528,14.893
-0.464,0.775,-0.336,13.245,-175.903,11.230
-0.450,0.801,-0.346,11.108,-173.218,8.301
-0.470,0.814,-0.363,9.766,-171.814,7.568
-0.541,0.818,-0.360,8.911,-171.448,8.972
-0.613,0.816,-0.352,8.118,-170.288,11.108
-0.672,0.809,-0.348,7.690,-167.297,12.024
-0.701,0.781,-0.350,7.141,-162.537,11.230
-0.695,0.760,-0.358,6.592,-157.349,9.888
-0.684,0.742,-0.363,5.981,-152.893,8.606
-0.668,0.740,-0.371,5.066,-149.780,6.409
-0.651,0.757,-0.378,4.333,-147.522,2.747

-1.355,1.123,-0.285,-17.761,26.794,-29.785
-1.467,1.113,-0.361,-10.986,35.522,-26.855
-1.570,1.096,-0.422,-5.615,45.837,-23.987
-1.664,1.067,-0.489,-1.770,57.678,-22.095
-1.726,1.030,-0.544,0.732,71.838,-21.423
-1.772,0.988,-0.586,1.587,87.524,-21.606
-1.772,0.946,-0.633,0.854,105.469,-22.827
-1.721,0.941,-0.672,-0.854,123.657,-24.109
-1.669,0.938,-0.733,-2.869,140.442,-24.475
-1.627,0.914,-0.798,-4.944,155.518,-23.621
-1.522,0.897,-0.865,-8.667,169.739,-21.790
-1.413,0.991,-0.941,-13.245,181.702,-18.921
-1.369,1.115,-0.997,-12.634,191.040,-14.954
-1.367,1.203,-1.046,-3.784,201.233,-11.963
-1.378,1.200,-1.098,11.841,216.309,-11.108
-1.374,1.109,-1.152,30.151,237.061,-12.024
-1.288,0.917,-1.213,45.593,261.902,-14.282
-1.229,0.685,-1.248,52.185,287.964,-17.700
-1.147,0.549,-1.265,46.936,313.965,-22.827
-0.984,0.555,-1.270,35.278,337.219,-29.602
-0.753,0.715,-1.278,24.719,353.638,-36.194
-0.543,0.942,-1.256,22.827,359.375,-39.551
-0.493,1.123,-1.241,33.875,356.689,-38.635
-0.553,1.176,-1.233,55.542,352.722,-33.203
-0.619,1.095,-1.243,81.299,354.980,-26.184
-0.595,0.943,-1.251,103.271,365.479,-22.705
-0.438,0.756,-1.277,115.967,379.883,-24.963
-0.230,0.613,-1.260,117.737,390.564,-29.053
-0.020,0.520,-1.190,110.535,392.151,-31.067
0.111,0.517,-1.059,97.168,382.935,-30.334
0.144,0.538,-0.918,81.360,366.333,-27.832
0.182,0.590,-0.794,66.162,345.398,-22.400
0.230,0.653,-0.690,52.429,322.937,-14.221
0.269,0.725,-0.604,41.321,300.598,-7.202
0.286,0.770,-0.546,33.081,281.433,-4.089
0.290,0.797,-0.490,26.917,267.639,-2.014
0.339,0.800,-0.443,21.606,259.827,1.160
0.429,0.747,-0.405,15.808,255.066,5.371
0.561,0.721,-0.365,7.446,250.000,10.559
0.685,0.730,-0.331,-2.563,243.042,15.442
0.816,0.795,-0.296,-12.390,232.300,19.775
0.911,0.889,-0.254,-19.775,218.323,24.353
0.988,0.999,-0.205,-21.851,202.209,30.273
1.054,1.070,-0.160,-18.738,187.134,36.499
1.128,1.110,-0.115,-11.353,173.706,43.152
1.191,1.109,-0.066,-2.136,162.354,49.011
1.236,1.065,-0.014,7.874,152.527,52.917
1.270,0.982,0.034,17.090,144.653,54.749
1.289,0.881,0.080,23.926,137.512,54.932
1.305,0.783,0.122,26.978,130.798,55.054
1.302,0.693,0.160,26.367,123.047,56.335
1.284,0.619,0.201,22.461,114.136,58.899
1.273,0.569,0.233,15.808,103.638,61.768
1.238,0.544,0.273,7.935,91.248,63.904
1.182,0.538,0.324,0.916,79.651,63.782
1.124,0.539,0.376,-4.517,70.251,60.913
1.089,0.542,0.427,-8.240,63.416,56.396
1.063,0.543,0.472,-10.559,57.190,50.903
1.044,0.550,0.504,-11.414,50.415,44.922
1.041,0.580,0.525,-10.986,42.419,38.818
1.026,0.624,0.543,-8.850,32.898,32.959
1.005,0.663,0.552,-5.127,22.522,27.527
0.971,0.652,0.552,-0.122,11.719,22.949
0.936,0.609,0.555,4.700,1.526,19.592
0.908,0.562,0.554,6.592,-7.690,16.113
0.880,0.533,0.556,5.798,-17.639,11.841
0.853,0.532,0.560,2.869,-27.771,6.592
0.832,0.552,0.549,-0.977,-38.025,1.709
0.812,0.586,0.520,-4.395,-48.157,-2.014
0.787,0.609,0.481,-7.874,-58.594,-3.845
0.745,0.620,0.434,-11.902,-68.665,-4.028
0.704,0.648,0.391,-16.541,-77.820,-3.723
0.667,0.687,0.348,-20.874,-86.060,-3.113
0.629,0.722,0.310,-23.926,-93.262,-2.319
0.595,0.747,0.273,-25.879,-99.670,-1.770
0.569,0.770,0.231,-26.917,-106.018,-1.831
0.540,0.808,0.199,-26.611,-112.915,-2.441
0.507,0.841,0.163,-24.719,-119.812,-3.479
0.473,0.868,0.138,-21.240,-126.526,-4.272
0.437,0.886,0.111,-17.029,-132.874,-5.066
0.393,0.890,0.082,-12.695,-139.282,-5.981
0.349,0.868,0.060,-9.094,-145.508,-5.798
0.312,0.832,0.036,-6.958,-151.428,-4.761
0.282,0.798,-0.003,-7.202,-156.921,-3.357
0.240,0.767,-0.041,-9.705,-162.048,-1.282
0.204,0.764,-0.079,-13.794,-166.992,1.465
0.185,0.794,-0.117,-19.104,-171.326,4.150
0.163,0.863,-0.153,-23.621,-176.331,6.958
0.115,0.951,-0.166,-25.818,-182.434,9.827
0.042,1.033,-0.161,-24.109,-188.110,12.451
-0.006,1.095,-0.164,-18.188,-192.932,15.381
-0.042,1.135,-0.171,-8.789,-197.021,18.433
-0.089,1.149,-0.176,2.319,-200.867,20.752
-0.128,1.148,-0.179,15.198,-203.064,22.339
-0.152,1.108,-0.191,28.381,-204.346,24.475
-0.165,1.055,-0.213,40.710,-205.078,27.466
-0.161,0.994,-0.239,50.720,-205.994,30.701
-0.176,0.908,-0.265,57.251,-208.008,32.654
-0.208,0.817,-0.285,59.021,-210.388,33.752
-0.262,0.753,-0.292,55.725,-212.585,33.875
-0.331,0.719,-0.287,48.706,-214.172,33.264
-0.391,0.725,-0.271,39.734,-214.539,31.860
-0.434,0.748,-0.240,30.762,-213.318,29.663
-0.472,0.792,-0.212,23.499,-210.632,27.954
-0.484,0.850,-0.179,18.799,-206.726,27.222
-0.464,0.912,-0.162,17.883,-202.026,28.198
-0.442,0.934,-0.152,20.447,-198.425,30.396
-0.437,0.878,-0.166,23.987,-196.716,32.776
-0.441,0.805,-0.193,26.001,-197.021,33.875
-0.482,0.734,-0.224,24.841,-199.707,32.471
-0.548,0.700,-0.239,19.592,-203.308,28.809
-0.609,0.715,-0.245,12.268,-205.811,23.865
-0.662,0.744,-0.241,4.700,-205.872,19.409
-0.684,0.803,-0.231,-1.587,-203.613,17.273
-0.679,0.849,-0.227,-4.944,-200.195,18.066
-0.664,0.904,-0.223,-5.371,-197.510,21.667
-0.660,0.966,-0.199,-2.563,-195.740,25.208
-0.661,0.978,-0.191,3.967,-194.458,27.405
-0.661,0.979,-0.207,13.306,-192.871,28.564

-1.573,0.798,-0.343,2.258,84.045,-22.095
-1.656,0.884,-0.406,-0.122,92.102,-22.156
-1.742,0.947,-0.476,-0.427,101.379,-21.484
-1.816,0.976,-0.533,1.770,112.976,-19.409
-1.836,0.953,-0.589,5.188,127.075,-16.113
-1.816,0.913,-0.633,7.080,143.188,-12.634
-1.779,0.846,-0.660,5.249,159.424,-10.803
-1.714,0.793,-0.698,-0.977,175.293,-10.254
-1.629,0.836,-0.739,-10.925,189.087,-11.169
-1.540,1.045,-0.781,-19.653,199.890,-12.329
-1.478,1.258,-0.823,-18.738,207.825,-12.512
-1.447,1.386,-0.860,-6.714,215.027,-11.780
-1.395,1.384,-0.881,12.329,224.548,-10.254
-1.342,1.257,-0.905,32.410,237.915,-7.629
-1.274,1.058,-0.916,45.959,253.418,-5.737
-1.154,0.836,-0.926,48.096,272.156,-8.179
-0.927,0.658,-0.948,36.926,290.955,-12.634
-0.681,0.582,-0.985,15.808,303.345,-15.686
-0.483,0.605,-1.031,-9.644,307.251,-19.165
-0.347,0.685,-1.049,-34.790,304.016,-24.780
-0.292,0.771,-1.050,-55.115,296.997,-32.532
-0.241,0.828,-1.053,-68.848,289.673,-40.833
-0.176,0.836,-1.077,-76.965,285.217,-46.326
-0.114,0.809,-1.101,-81.848,282.288,-47.852
-0.021,0.872,-1.111,-85.144,280.579,-47.241
0.039,0.916,-1.140,-84.656,279.480,-45.410
0.108,0.927,-1.146,-79.041,277.100,-41.870
0.193,0.949,-1.122,-70.435,273.071,-37.903
0.248,0.939,-1.120,-59.753,266.785,-34.668
0.280,0.929,-1.111,-49.316,259.766,-31.494
0.322,0.906,-1.098,-40.039,252.991,-26.978
0.307,0.866,-1.048,-32.532,246.277,-21.606
0.283,0.821,-0.993,-26.917,241.577,-17.334
0.297,0.812,-0.938,-22.949,240.662,-15.991
0.328,0.842,-0.868,-18.677,241.455,-17.212
0.381,0.855,-0.803,-11.536,242.493,-19.714
0.450,0.865,-0.744,-3.174,242.432,-20.691
0.514,0.861,-0.682,5.920,240.173,-18.494
0.573,0.846,-0.617,14.343,235.718,-13.184
0.621,0.786,-0.557,19.897,230.530,-6.897
0.677,0.709,-0.480,21.179,224.976,-1.831
0.732,0.649,-0.397,16.846,219.055,2.686
0.783,0.620,-0.321,7.996,212.280,6.470
0.829,0.614,-0.252,-2.930,204.590,10.681
0.852,0.651,-0.175,-14.709,196.899,14.343
0.872,0.715,-0.101,-25.696,191.223,15.808
0.897,0.789,-0.028,-33.691,187.378,15.198
0.938,0.863,0.037,-36.865,184.814,14.282
0.988,0.918,0.113,-35.950,182.007,13.428
1.030,0.964,0.189,-32.104,177.856,13.123
1.069,0.999,0.273,-25.879,171.631,13.733
1.092,0.996,0.351,-18.127,162.537,14.526
1.097,0.961,0.418,-10.010,151.917,14.587
1.092,0.914,0.461,-4.028,139.709,13.733
1.079,0.881,0.492,-0.854,127.502,12.146
1.049,0.873,0.521,0.671,115.967,10.620
1.023,0.856,0.545,1.343,104.736,9.766
1.007,0.839,0.567,1.770,93.567,9.399
0.993,0.826,0.585,1.587,82.153,8.728
0.973,0.815,0.594,0.244,70.129,7.996
0.954,0.807,0.598,-2.136,57.129,7.812
0.923,0.796,0.594,-5.371,43.457,8.301
0.888,0.798,0.586,-9.644,29.724,9.277
0.850,0.813,0.581,-13.916,16.418,9.460
0.813,0.833,0.572,-17.029,3.723,8.606
0.775,0.856,0.556,-18.433,-7.935,7.324
0.749,0.898,0.534,-18.127,-19.531,5.249
0.728,0.933,0.504,-15.686,-30.762,3.296
0.714,0.974,0.479,-10.376,-41.321,1.770
0.688,0.958,0.436,-3.845,-51.453,0.183
0.661,0.937,0.391,1.404,-60.486,-1.526
0.641,0.921,0.350,5.066,-68.237,-2.747
0.629,0.914,0.311,6.958,-75.134,-3.418
0.615,0.914,0.283,7.935,-82.642,-3.418
0.610,0.910,0.245,8.850,-91.919,-2.991
0.597,0.897,0.203,9.583,-102.783,-2.258
0.571,0.893,0.157,9.460,-114.624,-1.831
0.533,0.908,0.117,8.545,-125.488,-0.916
0.500,0.947,0.088,7.935,-134.338,0.854
0.482,0.972,0.054,8.423,-141.785,4.333
0.452,0.982,0.021,10.254,-148.621,9.033
0.430,0.978,-0.004,13.062,-154.175,13.794
0.420,0.970,-0.042,16.418,-159.241,17.456
0.409,0.955,-0.073,20.020,-164.856,20.081
0.418,0.953,-0.117,23.743,-171.448,22.522
0.437,0.969,-0.164,28.442,-179.871,25.635
0.410,0.972,-0.211,34.302,-191.162,28.992
0.326,0.954,-0.232,40.833,-202.515,31.677
0.230,0.944,-0.235,46.875,-210.083,33.142
0.173,0.957,-0.249,52.795,-212.585,34.241
0.125,0.992,-0.270,59.387,-212.219,36.682
0.094,1.028,-0.285,67.871,-210.205,42.053
0.091,1.002,-0.311,78.186,-208.008,49.744
0.084,0.915,-0.328,87.952,-206.970,56.946
0.099,0.817,-0.339,93.872,-207.336,59.998
0.113,0.724,-0.355,94.788,-210.327,58.411
0.127,0.648,-0.384,90.698,-216.614,54.260
0.116,0.598,-0.420,82.825,-226.318,51.453
0.031,0.590,-0.440,72.144,-238.464,51.025
-0.136,0.595,-0.429,60.547,-248.718,51.270
-0.304,0.616,-0.394,49.438,-251.526,51.147
-0.411,0.655,-0.356,40.283,-245.178,49.744
-0.409,0.732,-0.330,34.241,-232.483,47.485
-0.318,0.803,-0.323,33.508,-219.666,46.082
-0.194,0.860,-0.342,37.903,-212.585,46.936
-0.136,0.846,-0.362,45.715,-214.355,48.340
-0.197,0.774,-0.388,53.406,-222.046,48.218
-0.342,0.697,-0.415,57.617,-230.408,46.570
-0.502,0.651,-0.404,56.946,-235.046,43.213
-0.634,0.622,-0.385,52.856,-232.910,39.185
-0.712,0.635,-0.363,46.814,-224.854,35.339
-0.730,0.689,-0.328,40.527,-213.379,31.799
-0.679,0.777,-0.315,36.865,-201.538,29.541
-0.617,0.873,-0.298,37.842,-193.542,28.259
-0.583,0.919,-0.302,44.312,-190.125,27.283
-0.588,0.912,-0.331,53.528,-189.331,25.940
-0.662,0.863,-0.348,62.500,-190.002,24.048
-0.739,0.812,-0.356,68.604,-189.575,21.423
-0.783,0.750,-0.354,71.350,-187.073,18.616

-1.374,0.830,-0.393,-7.690,79.651,-52.795
-1.442,0.818,-0.420,-2.747,88.562,-52.246
-1.508,0.834,-0.442,0.244,96.436,-50.659
-1.556,0.864,-0.463,2.380,103.821,-48.523
-1.562,0.880,-0.488,3.601,111.572,-47.180
-1.568,0.861,-0.509,2.869,119.873,-46.814
-1.573,0.813,-0.539,-0.854,129.333,-47.058
-1.535,0.776,-0.595,-7.996,140.503,-47.974
-1.493,0.781,-0.650,-19.043,150.635,-50.842
-1.458,0.942,-0.692,-30.457,159.668,-55.115
-1.412,1.083,-0.723,-35.828,169.495,-58.655
-1.351,1.194,-0.751,-33.325,181.091,-59.509
-1.250,1.261,-0.765,-24.841,194.397,-58.777
-1.139,1.244,-0.779,-12.634,207.153,-57.861
-1.044,1.126,-0.782,-0.671,218.384,-56.580
-0.954,0.978,-0.784,6.836,228.943,-55.176
-0.829,0.867,-0.799,7.935,239.258,-53.772
-0.709,0.787,-0.795,3.479,245.728,-53.772
-0.612,0.747,-0.772,-3.479,247.620,-56.335
-0.537,0.744,-0.748,-11.475,246.582,-61.096
-0.500,0.708,-0.746,-20.020,245.483,-67.078
-0.469,0.679,-0.769,-29.602,246.643,-72.266
-0.437,0.679,-0.796,-39.978,250.916,-77.454
-0.417,0.693,-0.814,-48.767,258.850,-82.886
-0.331,0.714,-0.828,-54.688,270.325,-88.379
-0.104,0.759,-0.863,-57.800,281.372,-91.858
0.109,0.794,-0.891,-56.091,284.424,-88.013
0.227,0.848,-0.860,-48.950,275.330,-78.552
0.242,0.883,-0.781,-37.292,259.094,-70.068
0.195,0.859,-0.730,-22.888,243.408,-65.918
0.163,0.798,-0.720,-7.874,231.995,-64.636
0.172,0.703,-0.763,4.395,225.098,-64.392
0.178,0.619,-0.814,11.963,221.741,-64.270
0.176,0.594,-0.823,13.733,221.680,-64.575
0.230,0.634,-0.808,13.000,224.915,-65.857
0.366,0.715,-0.789,13.611,227.722,-64.941
0.480,0.752,-0.766,17.700,224.365,-59.204
0.504,0.753,-0.725,24.780,213.501,-50.476
0.474,0.703,-0.684,31.128,200.134,-44.067
0.426,0.653,-0.664,34.424,190.369,-40.833
0.402,0.621,-0.644,33.569,186.401,-38.818
0.397,0.608,-0.612,29.297,187.500,-36.804
0.437,0.628,-0.569,22.949,192.566,-34.302
0.512,0.686,-0.518,14.893,199.036,-31.738
0.599,0.752,-0.460,7.385,203.613,-28.931
0.697,0.834,-0.406,2.502,203.979,-23.315
0.766,0.887,-0.346,0.854,199.036,-15.503
0.780,0.911,-0.278,1.831,189.697,-6.958
0.746,0.895,-0.208,3.906,179.443,-0.793
0.716,0.881,-0.148,6.104,171.692,3.174
0.700,0.863,-0.093,7.568,167.969,4.639
0.708,0.858,-0.038,8.301,167.236,4.883
0.726,0.844,0.016,8.057,167.542,5.432
0.776,0.845,0.065,6.897,167.114,6.653
0.814,0.857,0.109,4.761,164.368,8.545
0.834,0.875,0.144,2.563,157.166,12.268
0.835,0.887,0.182,0.549,146.790,17.395
0.826,0.885,0.213,-0.732,134.583,22.156
0.787,0.891,0.245,-1.404,121.765,24.963
0.762,0.883,0.266,-1.770,110.107,25.818
0.753,0.877,0.281,-1.587,99.121,26.733
0.754,0.867,0.302,-1.709,88.257,27.710
0.751,0.840,0.309,-2.319,77.332,28.442
0.720,0.815,0.317,-4.395,66.528,28.748
0.691,0.807,0.318,-7.874,57.739,28.015
0.680,0.837,0.324,-12.207,50.781,26.855
0.688,0.889,0.335,-15.503,44.006,25.513
0.694,0.930,0.356,-15.869,36.011,23.865
0.705,0.959,0.380,-13.855,26.428,21.545
0.707,0.979,0.398,-9.644,15.015,19.104
0.691,0.988,0.408,-5.249,3.235,16.113
0.657,0.978,0.406,-0.854,-7.446,13.367
0.640,0.960,0.394,2.869,-16.479,12.085
0.642,0.945,0.382,5.371,-24.231,11.658
0.659,0.931,0.375,6.714,-32.227,11.658
0.677,0.916,0.355,6.836,-41.992,12.146
0.670,0.890,0.327,5.920,-54.626,13.916
0.642,0.864,0.297,3.784,-69.092,16.296
0.602,0.849,0.258,0.488,-83.069,18.066
0.566,0.862,0.219,-3.113,-95.520,19.348
0.529,0.891,0.183,-5.676,-105.652,20.447
0.508,0.921,0.144,-6.348,-114.014,22.095
0.502,0.938,0.100,-4.700,-121.582,24.170
0.500,0.938,0.050,-1.221,-129.211,26.184
0.503,0.936,-0.009,3.113,-137.451,28.137
0.505,0.929,-0.076,7.629,-146.606,30.396
0.485,0.922,-0.131,12.024,-156.799,33.752
0.438,0.916,-0.170,15.686,-166.504,36.804
0.412,0.916,-0.203,18.982,-174.866,38.574
0.374,0.923,-0.236,22.339,-182.495,39.368
0.328,0.952,-0.255,25.879,-189.026,39.673
0.299,0.986,-0.283,30.884,-194.153,40.222
0.274,0.990,-0.323,38.330,-199.280,41.748
0.245,0.992,-0.351,46.997,-204.041,44.678
0.230,0.989,-0.388,56.152,-207.825,49.438
0.210,0.984,-0.418,65.247,-211.487,55.115
0.171,0.975,-0.441,72.937,-214.478,59.570
0.130,0.959,-0.459,78.918,-216.553,62.805
0.087,0.924,-0.472,83.618,-217.834,65.002
0.035,0.874,-0.469,86.060,-218.567,65.918
-0.011,0.807,-0.462,85.632,-218.811,65.369
-0.039,0.734,-0.451,82.092,-218.750,64.026
-0.058,0.672,-0.444,75.684,-219.543,62.317
-0.056,0.643,-0.445,67.078,-221.252,59.753
-0.040,0.637,-0.468,57.129,-224.243,57.068
-0.060,0.659,-0.491,47.302,-229.309,55.603
-0.129,0.711,-0.498,38.940,-235.413,55.481
-0.224,0.795,-0.479,33.691,-239.136,56.030
-0.322,0.853,-0.471,32.837,-238.464,56.824
-0.407,0.891,-0.461,35.889,-233.093,57.556
-0.437,0.896,-0.453,40.039,-223.938,57.312
-0.428,0.880,-0.459,44.312,-213.684,57.129
-0.394,0.856,-0.464,46.814,-205.444,57.556
-0.351,0.833,-0.479,47.791,-200.989,58.838
-0.333,0.845,-0.489,48.218,-200.989,59.326
-0.362,0.888,-0.479,49.500,-203.613,57.251
-0.437,0.960,-0.454,52.856,-206.177,53.162
-0.506,1.008,-0.430,59.143,-205.933,49.316
-0.540,0.979,-0.424,67.444,-203.369,48.218

-1.488,0.851,-0.467,-27.405,85.815,-48.157
-1.549,0.902,-0.516,-20.447,95.581,-50.415
-1.608,0.918,-0.552,-12.634,105.530,-51.086
-1.652,0.911,-0.594,-6.226,117.249,-49.988
-1.671,0.916,-0.630,-1.648,130.920,-46.875
-1.683,0.958,-0.652,2.075,146.118,-42.236
-1.659,1.015,-0.677,7.385,162.537,-37.109
-1.644,1.056,-0.720,15.564,179.199,-32.043
-1.634,1.066,-0.728,25.940,195.618,-26.978
-1.588,1.054,-0.718,37.598,212.952,-23.132
-1.524,1.009,-0.731,48.096,230.652,-22.583
-1.425,0.948,-0.757,53.284,247.620,-26.550
-1.315,0.909,-0.776,50.903,263.306,-33.691
-1.175,0.911,-0.802,43.030,277.954,-40.161
-1.042,0.901,-0.856,31.799,290.527,-43.274
-0.903,0.856,-0.968,18.738,299.683,-40.894
-0.843,0.791,-1.005,3.845,301.697,-33.691
-0.811,0.739,-0.994,-13.000,298.950,-25.818
-0.770,0.700,-0.969,-32.471,296.753,-22.888
-0.669,0.672,-0.970,-52.734,295.715,-26.184
-0.544,0.684,-0.994,-72.510,294.678,-33.264
-0.434,0.687,-1.004,-90.027,292.175,-41.626
-0.311,0.736,-1.037,-104.858,289.490,-49.194
-0.205,0.800,-1.066,-115.356,286.255,-54.932
-0.090,0.873,-1.096,-119.385,281.921,-57.739
0.016,0.950,-1.107,-116.516,276.611,-57.068
0.068,0.955,-1.087,-107.422,270.081,-53.223
0.113,0.928,-1.055,-94.604,264.160,-45.715
0.207,0.877,-1.015,-80.261,259.338,-37.720
0.290,0.808,-0.957,-66.833,254.333,-32.104
0.372,0.744,-0.883,-55.542,249.146,-29.724
0.427,0.683,-0.814,-46.570,244.324,-29.724
0.482,0.614,-0.751,-39.856,239.624,-30.579
0.536,0.568,-0.708,-36.011,234.192,-31.860
0.580,0.557,-0.676,-34.668,227.661,-34.058
0.591,0.604,-0.619,-34.973,220.764,-37.781
0.581,0.683,-0.561,-33.997,215.515,-42.236
0.584,0.780,-0.487,-30.151,212.280,-44.678
0.610,0.839,-0.423,-22.461,210.205,-43.823
0.646,0.860,-0.357,-11.780,207.458,-39.429
0.679,0.847,-0.288,-1.587,202.759,-34.485
0.698,0.826,-0.220,7.080,195.984,-31.128
0.708,0.809,-0.158,13.306,187.500,-29.114
0.708,0.785,-0.097,16.846,178.040,-26.855
0.683,0.753,-0.049,17.395,168.701,-24.170
0.657,0.728,-0.006,15.015,160.645,-20.813
0.644,0.705,0.022,9.888,154.419,-17.944
0.618,0.708,0.052,3.357,149.658,-16.541
0.602,0.732,0.088,-2.869,145.447,-15.930
0.620,0.798,0.128,-7.935,141.174,-16.174
0.629,0.898,0.171,-10.193,135.010,-16.724
0.645,0.979,0.209,-7.812,125.916,-16.174
0.634,1.013,0.238,-1.892,114.624,-13.611
0.625,0.999,0.252,6.042,101.990,-10.376
0.590,0.963,0.273,13.367,89.539,-8.057
0.562,0.911,0.286,18.555,78.857,-6.653
0.538,0.861,0.298,20.508,70.190,-6.348
0.536,0.818,0.308,19.409,63.477,-7.080
0.549,0.799,0.317,15.381,57.739,-7.446
0.577,0.813,0.333,9.033,52.063,-7.263
0.604,0.860,0.342,2.686,45.471,-7.629
0.624,0.912,0.345,-1.587,37.048,-7.263
0.641,0.947,0.341,-3.540,26.794,-5.615
0.638,0.969,0.335,-3.845,14.771,-3.906
0.629,0.981,0.328,-3.113,2.869,-2.319
0.623,0.996,0.318,-1.587,-7.629,-1.892
0.613,1.005,0.310,0.977,-17.395,-2.563
0.603,1.005,0.301,4.639,-25.757,-3.540
0.602,1.000,0.288,8.240,-33.203,-4.211
0.604,0.983,0.267,11.230,-40.039,-4.578
0.603,0.962,0.246,13.245,-46.875,-4.700
0.603,0.943,0.225,13.611,-53.650,-4.456
0.602,0.925,0.203,12.146,-60.852,-3.601
0.599,0.911,0.183,9.644,-68.481,-1.648
0.603,0.921,0.166,5.798,-76.477,0.732
0.606,0.928,0.146,1.953,-85.144,3.601
0.595,0.930,0.130,-0.916,-94.788,7.019
0.578,0.937,0.105,-2.747,-104.614,10.071
0.561,0.941,0.073,-3.662,-113.892,12.390
0.527,0.949,0.042,-3.723,-122.192,14.648
0.476,0.954,0.018,-2.869,-128.967,17.212
0.445,0.965,-0.000,-1.526,-133.423,20.935
0.438,0.970,-0.018,0.610,-136.780,24.902
0.439,0.983,-0.031,3.906,-140.503,28.442
0.459,1.001,-0.041,8.545,-145.569,31.067
0.481,1.013,-0.060,14.954,-153.442,32.898
0.484,1.007,-0.083,23.315,-164.185,34.058
0.473,1.000,-0.116,32.593,-177.002,34.851
0.441,0.972,-0.159,42.175,-190.063,35.217
0.386,0.932,-0.203,51.147,-202.454,35.583
0.305,0.877,-0.232,58.777,-212.708,36.682
0.222,0.846,-0.240,63.904,-218.872,38.330
0.171,0.808,-0.255,66.895,-220.642,39.673
0.153,0.785,-0.272,67.017,-219.421,39.856
0.158,0.775,-0.285,64.758,-217.896,39.612
0.185,0.770,-0.310,60.791,-217.407,39.795
0.195,0.766,-0.340,55.908,-219.604,41.077
0.146,0.737,-0.367,50.415,-224.670,43.335
0.085,0.697,-0.404,43.640,-230.042,45.288
0.020,0.664,-0.439,35.583,-233.826,45.349
-0.059,0.678,-0.454,26.306,-235.657,43.030
-0.134,0.718,-0.454,16.785,-234.131,38.330
-0.183,0.783,-0.455,9.033,-229.309,34.729
-0.229,0.853,-0.441,4.089,-223.022,33.630
-0.267,0.908,-0.421,2.441,-215.515,34.485
-0.275,0.933,-0.395,3.357,-207.153,36.499
-0.237,0.929,-0.391,5.737,-199.463,38.818
-0.180,0.910,-0.413,8.972,-195.618,41.260
-0.178,0.871,-0.447,12.146,-197.266,44.983
-0.232,0.838,-0.469,15.320,-203.064,48.767
-0.324,0.823,-0.486,18.127,-209.595,49.927
-0.447,0.798,-0.484,20.081,-213.501,47.546
-0.573,0.806,-0.460,20.447,-212.402,41.992
-0.656,0.848,-0.441,20.386,-205.261,35.339
-0.698,0.881,-0.428,21.362,-193.542,29.541
-0.675,0.912,-0.422,23.499,-180.176,25.757
-0.607,0.934,-0.423,26.672,-168.762,24.475
-0.545,0.944,-0.430,31.006,-161.499,25.574
-0.502,0.929,-0.451,35.461,-158.752,28.198

-1.348,0.873,-0.331,25.330,86.670,-28.503
-1.406,0.813,-0.395,26.062,93.567,-25.818
-1.451,0.787,-0.459,22.644,100.647,-24.719
-1.468,0.777,-0.523,16.296,107.483,-25.757
-1.457,0.776,-0.626,7.446,114.441,-28.503
-1.467,0.863,-0.620,-1.831,121.155,-30.945
-1.433,0.920,-0.666,-9.094,129.944,-32.959
-1.382,0.949,-0.731,-13.794,140.076,-34.058
-1.349,0.966,-0.783,-16.663,147.461,-31.738
-1.347,1.005,-0.840,-18.250,153.870,-27.649
-1.365,1.014,-0.903,-17.883,161.194,-24.109
-1.343,1.013,-0.970,-16.907,170.776,-20.691
-1.281,1.079,-1.020,-14.404,181.458,-17.761
-1.245,1.124,-1.040,-9.155,192.322,-16.846
-1.225,1.111,-1.054,-1.587,204.590,-17.395
-1.186,1.046,-1.055,7.263,219.116,-18.311
-1.065,0.948,-1.062,14.709,234.497,-20.020
-0.933,0.856,-1.053,18.250,248.047,-23.315
-0.810,0.752,-1.050,17.395,260.376,-28.625
-0.626,0.707,-1.081,11.353,271.240,-34.729
-0.486,0.674,-1.107,1.160,279.663,-42.053
-0.400,0.641,-1.135,-10.986,285.156,-47.546
-0.312,0.631,-1.155,-25.269,290.161,-49.561
-0.202,0.617,-1.164,-38.757,295.532,-51.025
-0.088,0.594,-1.158,-51.880,300.842,-54.565
0.080,0.604,-1.164,-64.880,305.664,-59.448
0.224,0.652,-1.157,-76.050,307.495,-63.599
0.325,0.720,-1.117,-83.435,305.908,-64.880
0.422,0.792,-1.052,-85.327,302.307,-63.538
0.468,0.834,-0.991,-80.627,295.959,-60.669
0.487,0.847,-0.934,-69.641,287.354,-57.068
0.514,0.869,-0.867,-55.115,277.832,-53.101
0.518,0.867,-0.810,-37.537,267.273,-49.316
0.546,0.842,-0.771,-18.127,257.019,-46.448
0.560,0.818,-0.728,0.122,248.718,-45.288
0.573,0.797,-0.672,17.029,242.432,-45.410
0.587,0.771,-0.611,31.372,238.220,-45.288
0.598,0.735,-0.547,42.419,235.657,-43.396
0.636,0.677,-0.493,49.072,233.582,-39.673
0.669,0.621,-0.433,50.842,229.614,-34.668
0.677,0.581,-0.360,47.974,223.206,-28.992
0.690,0.576,-0.282,41.992,215.271,-24.048
0.702,0.602,-0.204,34.363,206.909,-19.714
0.721,0.656,-0.129,26.978,197.937,-14.954
0.738,0.709,-0.039,21.057,188.293,-9.888
0.729,0.744,0.048,16.663,178.833,-5.859
0.715,0.763,0.127,13.245,170.471,-3.540
0.713,0.768,0.191,10.620,163.330,-1.465
0.721,0.776,0.247,8.240,156.311,0.427
0.723,0.780,0.294,6.287,148.437,1.770
0.726,0.802,0.328,4.456,139.893,2.441
0.731,0.829,0.357,3.235,130.920,2.747
0.739,0.867,0.379,3.052,121.460,3.540
0.733,0.887,0.394,3.723,111.511,4.333
0.724,0.888,0.408,4.456,101.013,5.371
0.716,0.885,0.419,4.883,90.637,6.470
0.695,0.892,0.432,4.761,80.078,7.507
0.675,0.900,0.443,4.761,69.824,7.812
0.662,0.901,0.443,5.066,60.364,7.996
0.654,0.896,0.445,5.249,51.575,8.667
0.655,0.898,0.441,4.761,43.091,9.644
0.660,0.914,0.442,4.028,34.851,10.437
0.662,0.923,0.431,3.540,26.733,10.742
0.657,0.912,0.420,3.418,18.127,11.414
0.646,0.896,0.402,2.441,8.789,12.268
0.626,0.886,0.384,0.854,-0.244,12.695
0.602,0.886,0.367,-0.977,-8.423,12.390
0.582,0.905,0.353,-2.747,-16.113,11.292
0.572,0.935,0.348,-3.540,-23.254,9.583
0.579,0.968,0.339,-3.052,-29.419,7.385
0.588,0.998,0.329,-1.221,-35.522,5.066
0.604,1.016,0.322,1.892,-42.419,3.784
0.613,1.016,0.305,6.226,-50.598,3.906
0.605,1.008,0.289,10.132,-59.998,4.578
0.570,0.985,0.271,13.428,-70.068,5.859
0.530,0.952,0.248,15.198,-78.918,7.507
0.503,0.921,0.220,15.381,-85.693,9.460
0.487,0.899,0.200,13.611,-91.309,11.169
0.485,0.898,0.178,10.864,-96.252,12.207
0.490,0.916,0.162,7.690,-101.868,13.062
0.494,0.947,0.153,5.066,-108.643,14.404
0.500,0.976,0.137,3.906,-116.882,16.907
0.490,0.996,0.107,4.639,-126.648,20.630
0.458,0.996,0.080,6.897,-137.085,25.146
0.402,0.989,0.064,10.071,-147.278,29.297
0.327,0.976,0.052,14.038,-155.151,32.043
0.257,0.969,0.037,18.494,-158.569,32.654
0.226,0.971,0.018,23.804,-158.691,32.104
0.223,0.974,-0.008,30.090,-157.654,31.128
0.229,0.980,-0.035,37.048,-157.593,31.189
0.226,0.987,-0.055,44.495,-159.851,32.043
0.207,0.961,-0.085,51.941,-164.062,33.936
0.182,0.903,-0.109,58.777,-169.678,36.560
0.160,0.845,-0.139,63.110,-176.025,38.879
0.145,0.808,-0.158,64.514,-182.495,39.795
0.112,0.771,-0.176,64.331,-188.965,39.856
0.059,0.747,-0.189,61.890,-195.129,39.368
-0.011,0.725,-0.196,58.167,-199.280,37.964
-0.085,0.706,-0.211,53.162,-200.562,36.011
-0.130,0.705,-0.218,47.058,-199.585,33.936
-0.147,0.738,-0.224,40.527,-197.021,31.860
-0.158,0.782,-0.236,34.546,-194.519,31.006
-0.154,0.825,-0.251,30.701,-193.298,32.776
-0.137,0.868,-0.264,29.785,-193.726,36.133
-0.127,0.879,-0.287,31.860,-196.167,39.734
-0.155,0.856,-0.318,35.645,-200.500,42.725
-0.205,0.812,-0.334,39.795,-205.933,44.434
-0.268,0.762,-0.353,42.480,-209.900,44.434
-0.371,0.747,-0.346,43.335,-211.731,42.786
-0.462,0.768,-0.317,42.725,-209.473,39.124
-0.469,0.805,-0.312,42.786,-203.064,35.034
-0.447,0.844,-0.322,45.105,-196.838,33.020
-0.425,0.859,-0.328,50.354,-193.481,33.691
-0.418,0.845,-0.325,58.350,-192.871,35.400
-0.412,0.797,-0.320,66.589,-193.298,35.828
-0.400,0.719,-0.324,73.059,-194.458,33.936
-0.392,0.641,-0.327,74.951,-196.960,30.334
-0.418,0.587,-0.337,71.472,-201.294,26.062
-0.482,0.575,-0.352,63.965,-206.238,21.790

-1.349,0.989,-0.465,-12.817,82.153,-23.987
-1.387,1.050,-0.486,-6.287,93.933,-21.973
-1.405,1.101,-0.476,2.441,105.774,-18.188
-1.412,1.109,-0.458,13.306,118.103,-14.587
-1.410,1.064,-0.473,22.827,130.066,-10.620
-1.390,1.012,-0.479,28.076,140.991,-5.188
-1.351,0.997,-0.472,28.259,150.513,2.136
-1.336,1.034,-0.464,25.696,158.508,11.047
-1.337,1.067,-0.458,23.499,166.382,19.226
-1.313,1.083,-0.456,23.926,174.866,24.597
-1.286,1.033,-0.470,26.245,183.289,27.222
-1.289,0.904,-0.497,27.283,191.650,27.344
-1.262,0.718,-0.528,23.376,200.562,24.841
-1.208,0.580,-0.556,11.230,210.388,17.944
-1.101,0.637,-0.593,-7.324,220.886,6.348
-0.923,0.919,-0.650,-26.672,231.079,-7.141
-0.831,1.185,-0.686,-36.133,238.159,-17.029
-0.769,1.372,-0.719,-32.166,244.202,-18.860
-0.726,1.411,-0.745,-19.043,251.343,-14.343
-0.700,1.310,-0.798,-4.211,261.414,-7.629
-0.671,1.118,-0.832,6.104,273.132,-3.113
-0.624,0.912,-0.841,8.423,285.034,-2.319
-0.548,0.711,-0.863,1.892,296.448,-5.310
-0.399,0.588,-0.912,-12.512,305.664,-11.414
-0.195,0.577,-0.978,-33.325,309.814,-20.264
-0.029,0.668,-1.027,-56.824,306.946,-30.212
0.074,0.822,-1.038,-76.111,297.852,-36.682
0.115,0.967,-1.017,-87.646,285.400,-39.063
0.118,1.056,-0.990,-90.210,272.705,-37.537
0.129,1.059,-0.961,-85.754,261.841,-32.959
0.180,1.019,-0.953,-77.881,252.686,-26.001
0.238,0.955,-0.944,-70.251,244.934,-19.897
0.243,0.875,-0.923,-64.880,238.037,-15.747
0.260,0.790,-0.907,-62.012,233.765,-13.184
0.299,0.741,-0.889,-61.401,232.239,-11.658
0.352,0.739,-0.843,-62.134,232.422,-11.353
0.419,0.780,-0.787,-61.584,232.666,-11.536
0.507,0.843,-0.735,-57.983,231.506,-11.353
0.573,0.882,-0.654,-50.598,226.746,-9.033
0.602,0.887,-0.569,-40.771,218.811,-4.578
0.600,0.867,-0.487,-30.273,209.534,0.183
0.598,0.809,-0.419,-20.630,202.026,5.005
0.595,0.744,-0.354,-13.855,196.655,9.033
0.608,0.699,-0.291,-10.681,193.420,12.146
0.651,0.692,-0.231,-10.254,191.711,13.123
0.701,0.741,-0.164,-10.864,189.941,12.268
0.749,0.817,-0.090,-10.193,187.134,10.864
0.783,0.863,-0.018,-6.714,182.495,10.986
0.809,0.885,0.047,-2.014,175.598,13.184
0.804,0.884,0.113,3.113,167.053,15.930
0.790,0.857,0.176,7.202,158.691,18.738
0.776,0.820,0.228,9.277,150.818,20.508
0.789,0.811,0.280,9.094,143.188,21.484
0.795,0.813,0.323,7.568,134.949,21.545
0.809,0.825,0.368,5.615,125.671,21.851
0.806,0.837,0.405,3.174,114.868,22.278
0.779,0.825,0.437,0.732,102.844,23.193
0.743,0.805,0.462,-2.991,90.698,25.024
0.701,0.795,0.478,-7.996,79.590,26.184
0.669,0.811,0.493,-14.099,70.190,25.330
0.655,0.857,0.508,-20.142,62.317,22.827
0.651,0.929,0.531,-23.621,54.382,19.775
0.658,1.006,0.558,-24.048,46.204,17.334
0.657,1.061,0.574,-20.569,36.499,15.564
0.642,1.086,0.589,-14.099,25.452,14.465
0.610,1.065,0.592,-6.897,13.977,13.489
0.585,1.027,0.590,-1.343,3.296,12.390
0.562,0.997,0.588,2.136,-5.981,10.498
0.539,0.982,0.586,3.906,-14.832,8.057
0.533,0.976,0.573,4.639,-23.804,5.493
0.517,0.970,0.555,5.066,-33.630,3.784
0.494,0.961,0.533,5.127,-43.701,2.625
0.470,0.953,0.503,4.822,-53.345,1.221
0.450,0.956,0.468,4.150,-62.256,-0.061
0.438,0.953,0.428,3.357,-70.801,-0.732
0.423,0.953,0.393,2.563,-79.102,-0.366
0.415,0.958,0.360,1.465,-87.708,0.305
0.403,0.968,0.323,0.366,-96.497,0.610
0.381,0.985,0.289,-0.305,-105.774,0.854
0.343,0.995,0.259,-0.488,-114.502,1.526
0.320,1.004,0.225,-0.122,-121.948,2.319
0.307,1.020,0.190,0.610,-127.869,3.113
0.297,1.041,0.164,2.747,-133.789,3.906
0.288,1.055,0.131,6.348,-139.893,5.066
0.278,1.053,0.096,10.925,-146.240,6.470
0.242,1.036,0.064,16.174,-152.954,8.118
0.202,1.006,0.027,21.179,-158.264,10.559
0.181,0.974,-0.014,24.902,-161.682,13.733
0.172,0.952,-0.045,26.978,-164.124,16.968
0.180,0.941,-0.074,27.832,-166.687,20.020
0.168,0.947,-0.104,28.564,-170.532,23.132
0.135,0.943,-0.118,29.846,-174.988,25.330
0.100,0.939,-0.134,31.250,-178.711,26.794
0.074,0.920,-0.144,33.264,-181.580,27.588
0.056,0.901,-0.159,34.607,-183.716,27.954
0.041,0.885,-0.180,35.645,-185.364,28.259
0.026,0.868,-0.201,37.109,-186.951,28.137
0.014,0.876,-0.221,39.795,-188.965,28.748
-0.008,0.891,-0.241,43.335,-190.857,29.846
-0.042,0.904,-0.256,48.523,-192.017,31.738
-0.065,0.914,-0.265,54.077,-191.833,34.668
-0.074,0.903,-0.273,59.875,-191.101,38.452
-0.083,0.862,-0.280,64.880,-190.857,42.603
-0.091,0.803,-0.283,67.566,-191.162,45.532
-0.112,0.727,-0.290,67.261,-192.139,45.898
-0.136,0.653,-0.313,63.416,-193.665,44.067
-0.159,0.595,-0.339,56.213,-195.374,41.382
-0.188,0.561,-0.366,46.997,-197.083,38.391
-0.236,0.559,-0.377,36.926,-198.425,35.278
-0.282,0.609,-0.373,27.039,-197.815,32.471
-0.303,0.689,-0.369,19.836,-195.251,30.273
-0.323,0.788,-0.356,16.785,-191.956,29.480
-0.351,0.850,-0.335,18.921,-188.293,29.724
-0.367,0.870,-0.323,24.597,-184.814,30.457
-0.382,0.844,-0.330,31.494,-181.946,31.372
-0.379,0.796,-0.351,37.231,-180.603,31.738
-0.386,0.739,-0.379,40.527,-180.969,32.227
-0.414,0.683,-0.409,40.894,-182.434,31.677
-0.467,0.634,-0.427,38.391,-183.594,29.297

-1.191,0.966,-0.542,-6.348,56.274,-24.963
-1.198,1.008,-0.553,-4.700,67.566,-26.184
-1.184,1.028,-0.567,-0.427,79.346,-26.184
-1.162,1.010,-0.576,5.676,90.515,-25.269
-1.145,0.961,-0.583,12.024,101.440,-24.353
-1.128,0.891,-0.584,16.663,112.061,-23.621
-1.104,0.818,-0.585,18.555,123.169,-24.353
-1.055,0.762,-0.585,17.578,134.460,-26.978
-0.997,0.740,-0.583,14.099,145.386,-30.945
-0.942,0.716,-0.590,8.911,156.311,-35.645
-0.901,0.706,-0.599,2.747,166.870,-39.978
-0.861,0.700,-0.598,-3.662,178.040,-44.189
-0.834,0.702,-0.589,-11.169,190.613,-49.377
-0.773,0.699,-0.588,-20.081,204.712,-55.359
-0.676,0.719,-0.596,-29.358,217.957,-60.669
-0.532,0.780,-0.622,-38.086,227.356,-64.026
-0.427,0.911,-0.647,-43.274,230.408,-64.636
-0.382,1.011,-0.648,-42.725,226.990,-64.392
-0.379,1.077,-0.635,-36.438,220.459,-64.453
-0.405,1.091,-0.630,-26.978,213.135,-64.941
-0.385,1.087,-0.659,-16.541,206.848,-65.491
-0.354,1.076,-0.691,-7.996,200.989,-66.284
-0.354,1.061,-0.711,-2.563,194.824,-66.162
-0.355,1.057,-0.736,0.305,189.941,-63.965
-0.376,1.038,-0.757,1.953,185.974,-58.960
-0.394,1.041,-0.769,3.052,183.411,-53.223
-0.395,1.055,-0.771,4.089,182.434,-49.805
-0.374,1.052,-0.786,6.409,182.922,-48.340
-0.308,1.063,-0.815,9.399,184.204,-47.485
-0.244,1.091,-0.842,13.855,184.509,-47.241
-0.221,1.115,-0.858,19.958,184.326,-46.143
-0.221,1.114,-0.875,27.832,185.120,-43.030
-0.192,1.108,-0.896,36.682,187.866,-37.964
-0.156,1.090,-0.906,45.898,191.772,-32.104
-0.127,1.045,-0.902,54.749,196.411,-26.123
-0.090,0.961,-0.899,61.401,202.026,-19.592
-0.040,0.870,-0.883,64.026,207.764,-12.146
0.003,0.796,-0.848,61.646,212.708,-4.883
0.054,0.733,-0.798,55.481,216.797,2.319
0.115,0.702,-0.735,46.631,219.604,8.606
0.170,0.708,-0.659,37.415,221.619,12.634
0.220,0.717,-0.587,30.151,222.473,14.709
0.260,0.726,-0.526,25.452,222.046,16.113
0.290,0.726,-0.470,23.010,220.398,18.127
0.320,0.726,-0.411,22.217,218.872,20.447
0.349,0.727,-0.353,22.217,217.957,22.949
0.390,0.716,-0.298,22.766,217.224,25.391
0.434,0.688,-0.236,23.132,216.187,27.588
0.499,0.666,-0.171,22.034,214.355,29.419
0.549,0.632,-0.107,19.470,210.571,30.518
0.587,0.606,-0.040,15.198,205.017,31.067
0.619,0.596,0.016,9.338,197.571,30.334
0.641,0.615,0.075,3.113,189.209,28.076
0.651,0.652,0.128,-2.319,180.115,24.963
0.674,0.708,0.174,-5.737,171.387,22.034
0.693,0.781,0.225,-7.080,162.598,19.287
0.709,0.840,0.278,-5.249,153.076,17.639
0.719,0.870,0.322,-0.671,143.250,16.541
0.718,0.877,0.360,5.737,133.423,15.686
0.717,0.877,0.387,12.451,124.023,14.465
0.708,0.851,0.406,18.494,115.356,12.634
0.694,0.825,0.429,22.583,106.750,10.620
0.674,0.800,0.455,24.536,98.633,8.972
0.673,0.771,0.474,24.292,91.187,7.507
0.674,0.767,0.497,21.790,83.008,6.592
0.687,0.769,0.522,17.944,73.547,6.653
0.692,0.761,0.533,13.733,61.768,7.629
0.675,0.763,0.547,8.911,48.584,8.789
0.640,0.773,0.552,3.662,36.011,8.423
0.610,0.797,0.550,-0.671,25.635,6.287
0.579,0.820,0.548,-3.540,17.090,3.906
0.553,0.840,0.541,-5.005,10.132,2.502
0.542,0.842,0.532,-5.676,4.150,2.014
0.539,0.848,0.524,-6.226,-1.221,1.526
0.548,0.863,0.516,-6.592,-7.141,0.488
0.547,0.875,0.505,-6.653,-15.137,-0.366
0.535,0.889,0.501,-5.981,-24.597,-0.488
0.518,0.885,0.484,-5.005,-34.485,0.183
0.504,0.878,0.460,-3.906,-43.945,1.038
0.494,0.867,0.436,-3.113,-53.406,1.770
0.479,0.859,0.410,-2.869,-62.012,1.831
0.464,0.851,0.380,-2.930,-70.251,1.770
0.448,0.848,0.342,-3.174,-77.759,1.587
0.433,0.850,0.307,-3.723,-84.351,1.770
0.421,0.861,0.275,-4.578,-91.003,2.686
0.414,0.880,0.246,-5.310,-97.351,4.395
0.404,0.887,0.213,-5.310,-104.126,6.775
0.381,0.891,0.190,-4.883,-111.511,9.583
0.370,0.899,0.157,-4.089,-118.530,11.841
0.366,0.928,0.120,-2.808,-125.427,14.038
0.344,0.934,0.083,-0.610,-132.751,16.479
0.302,0.957,0.059,2.625,-139.893,19.409
0.256,0.949,0.041,7.446,-146.057,21.484
0.224,0.949,0.014,12.451,-150.635,22.644
0.185,0.937,0.001,17.517,-154.297,22.644
0.158,0.941,-0.001,21.729,-157.288,22.583
0.154,0.947,-0.015,26.245,-160.095,22.705
0.145,0.945,-0.030,31.128,-163.513,23.010
0.135,0.919,-0.056,35.461,-167.542,24.170
0.109,0.867,-0.091,38.391,-171.875,25.940
0.060,0.796,-0.125,37.903,-176.331,28.320
-0.007,0.726,-0.147,33.569,-179.993,30.823
-0.080,0.681,-0.158,25.757,-181.274,32.288
-0.154,0.670,-0.168,15.503,-179.810,32.471
-0.191,0.698,-0.172,4.700,-175.659,30.945
-0.207,0.749,-0.170,-4.089,-170.227,28.015
-0.195,0.802,-0.169,-10.193,-165.039,24.719
-0.144,0.858,-0.188,-13.306,-161.621,22.705
-0.087,0.909,-0.224,-13.184,-162.109,22.705
-0.067,0.955,-0.270,-9.949,-166.992,24.719
-0.099,1.002,-0.303,-3.418,-175.110,27.405
-0.174,1.038,-0.334,6.409,-183.289,29.358
-0.271,1.041,-0.354,19.165,-188.354,29.724
-0.391,1.027,-0.355,32.410,-188.660,28.992
-0.484,0.999,-0.340,44.495,-182.800,27.100
-0.516,0.969,-0.323,54.016,-171.570,24.414
-0.496,0.931,-0.304,60.303,-158.936,21.423
-0.434,0.880,-0.295,63.171,-148.315,18.982
-0.374,0.829,-0.284,62.927,-142.944,17.212

-1.054,1.091,-0.376,11.047,72.998,-28.076
-1.033,1.101,-0.383,21.362,81.726,-25.208
-1.005,1.100,-0.379,29.724,89.111,-21.057
-1.000,1.080,-0.384,35.889,94.788,-16.113
-1.021,1.052,-0.398,39.307,99.182,-10.742
-1.022,1.046,-0.414,40.588,103.882,-6.226
-1.027,1.082,-0.439,41.260,108.948,-3.418
-1.050,1.120,-0.468,43.213,114.868,-1.038
-1.071,1.142,-0.501,47.607,122.375,1.404
-1.082,1.144,-0.530,54.993,132.446,3.906
-1.054,1.117,-0.587,63.538,144.043,5.371
-1.024,1.066,-0.635,70.496,155.090,5.859
-0.986,1.020,-0.673,74.402,165.710,5.310
-0.924,0.997,-0.711,74.402,176.086,2.991
-0.854,1.004,-0.758,72.021,185.730,0.305
-0.818,1.030,-0.817,69.397,193.115,0.122
-0.784,1.040,-0.879,67.993,199.158,2.319
-0.783,1.012,-0.962,67.017,204.773,7.202
-0.801,0.947,-1.028,64.209,212.769,12.024
-0.788,0.860,-1.081,56.641,223.694,13.428
-0.776,0.771,-1.121,44.312,237.427,9.705
-0.779,0.751,-1.085,27.588,252.319,2.502
-0.706,0.761,-1.058,10.498,270.142,-6.653
-0.542,0.803,-1.035,-4.211,286.926,-17.151
-0.302,0.877,-0.986,-15.564,298.401,-23.804
-0.095,0.949,-0.934,-22.400,299.194,-21.301
0.074,1.008,-0.863,-25.757,290.405,-11.841
0.140,1.052,-0.754,-26.733,275.269,-1.831
0.144,1.069,-0.651,-26.123,259.949,5.737
0.142,1.019,-0.594,-24.963,248.657,11.597
0.148,0.951,-0.559,-25.330,241.760,18.005
0.165,0.872,-0.523,-28.503,237.366,23.804
0.190,0.802,-0.495,-34.607,235.168,27.466
0.269,0.754,-0.474,-43.030,234.070,28.503
0.368,0.762,-0.425,-52.246,231.934,26.672
0.457,0.803,-0.362,-59.509,226.868,21.851
0.505,0.854,-0.299,-62.927,218.933,15.625
0.527,0.919,-0.225,-61.890,209.473,11.597
0.555,0.969,-0.169,-56.335,200.500,10.498
0.584,0.996,-0.119,-46.936,191.528,11.658
0.595,0.978,-0.079,-34.851,181.763,14.038
0.588,0.914,-0.045,-23.071,172.852,15.930
0.564,0.844,-0.011,-13.672,165.588,16.235
0.548,0.764,0.011,-7.690,160.828,15.503
0.546,0.702,0.031,-6.226,157.776,13.794
0.561,0.668,0.056,-8.240,155.151,11.230
0.584,0.665,0.085,-13.367,152.344,7.996
0.611,0.673,0.109,-19.226,147.461,5.615
0.634,0.703,0.128,-25.757,140.015,5.188
0.630,0.730,0.148,-30.884,129.944,6.531
0.593,0.740,0.166,-34.363,117.981,8.423
0.543,0.758,0.178,-36.865,106.628,8.850
0.498,0.798,0.191,-37.903,97.900,7.263
0.458,0.853,0.209,-36.865,91.675,3.845
0.431,0.899,0.227,-33.508,87.402,0.183
0.418,0.916,0.245,-28.198,83.801,-2.197
0.409,0.907,0.253,-22.339,79.834,-3.296
0.409,0.900,0.266,-17.334,75.134,-3.967
0.412,0.900,0.281,-13.245,69.580,-4.822
0.421,0.907,0.295,-9.460,62.439,-5.737
0.419,0.911,0.305,-6.165,53.528,-6.165
0.405,0.923,0.317,-3.479,43.518,-5.920
0.369,0.922,0.321,-1.282,33.447,-5.554
0.319,0.918,0.319,-0.427,24.902,-4.761
0.281,0.910,0.312,-0.549,18.921,-4.272
0.262,0.906,0.310,-1.770,15.076,-3.967
0.269,0.914,0.312,-3.296,12.146,-3.662
0.281,0.946,0.326,-4.578,8.484,-3.479
0.279,0.974,0.342,-4.761,3.235,-3.052
0.283,0.990,0.348,-3.357,-2.380,-1.770
0.277,0.992,0.344,-1.221,-8.423,-0.244
0.265,0.988,0.339,0.732,-14.648,1.709
0.264,0.983,0.331,2.441,-20.508,3.784
0.260,0.967,0.323,3.723,-26.001,5.920
0.257,0.940,0.315,4.089,-31.616,7.812
0.255,0.908,0.306,3.174,-37.476,9.277
0.251,0.885,0.298,1.343,-43.091,10.193
0.246,0.880,0.286,-1.343,-48.279,10.376
0.249,0.884,0.270,-3.967,-53.467,10.376
0.239,0.890,0.247,-6.287,-58.899,11.169
0.222,0.909,0.227,-8.545,-64.331,12.085
0.215,0.947,0.213,-9.583,-69.275,12.939
0.216,0.989,0.200,-8.789,-74.036,14.221
0.216,1.033,0.197,-5.310,-79.712,16.235
0.221,1.061,0.187,0.366,-86.243,18.250
0.227,1.046,0.159,8.240,-93.750,20.508
0.216,1.013,0.131,16.418,-102.295,23.315
0.185,0.968,0.105,23.071,-110.962,25.757
0.162,0.912,0.078,27.527,-117.920,27.832
0.117,0.861,0.053,29.114,-123.413,29.480
0.083,0.835,0.038,27.832,-127.014,30.884
0.062,0.836,0.019,24.658,-129.089,32.227
0.039,0.876,0.007,21.240,-131.165,34.119
0.014,0.927,0.004,19.409,-133.972,36.743
-0.011,0.970,0.007,20.630,-137.756,39.856
-0.033,0.983,0.005,25.085,-141.663,42.419
-0.046,0.951,-0.007,31.250,-145.752,44.617
-0.060,0.893,-0.026,37.048,-150.146,46.082
-0.074,0.837,-0.042,40.894,-154.114,46.265
-0.099,0.790,-0.066,41.931,-157.898,45.410
-0.135,0.774,-0.090,40.710,-160.767,44.128
-0.174,0.797,-0.116,38.696,-161.987,42.908
-0.227,0.861,-0.141,37.598,-161.865,42.236
-0.289,0.925,-0.149,40.222,-160.339,42.358
-0.336,0.968,-0.147,46.997,-156.677,43.152
-0.360,0.962,-0.148,57.129,-151.123,43.701
-0.351,0.918,-0.143,68.359,-145.386,43.335
-0.319,0.850,-0.142,78.186,-141.052,42.114
-0.267,0.787,-0.156,85.449,-139.587,39.978
-0.250,0.744,-0.171,89.417,-141.846,37.109
-0.288,0.716,-0.185,90.942,-145.386,33.325
-0.340,0.697,-0.203,90.698,-146.973,28.870
-0.369,0.704,-0.224,89.478,-145.691,24.658
-0.414,0.707,-0.225,87.830,-143.799,21.240
-0.448,0.706,-0.213,86.182,-141.541,19.043
-0.454,0.669,-0.202,84.106,-139.404,16.541
-0.436,0.636,-0.202,80.200,-137.939,14.038
-0.434,0.604,-0.198,73.730,-138.672,10.986
-0.448,0.595,-0.188,65.491,-140.747,7.385

-0.925,1.247,-0.442,-36.560,95.154,-49.011
-0.898,1.235,-0.427,-17.761,103.210,-45.532
-0.881,1.186,-0.425,0.244,109.924,-39.734
-0.886,1.115,-0.438,15.625,115.479,-32.410
-0.930,1.031,-0.460,26.978,120.178,-25.085
-0.982,0.964,-0.473,33.752,125.549,-20.142
-0.993,0.902,-0.491,35.767,132.568,-18.372
-0.982,0.831,-0.502,34.607,140.198,-19.104
-0.977,0.775,-0.508,30.090,147.461,-21.179
-0.989,0.737,-0.513,22.522,155.212,-23.437
-0.979,0.712,-0.528,13.184,163.025,-25.757
-0.966,0.724,-0.532,3.906,170.593,-28.687
-0.902,0.748,-0.525,-3.967,177.063,-33.752
-0.789,0.786,-0.532,-9.766,180.786,-38.513
-0.706,0.804,-0.536,-14.221,179.749,-40.527
-0.678,0.835,-0.531,-17.944,174.805,-37.781
-0.730,0.843,-0.513,-20.569,169.067,-34.302
-0.751,0.826,-0.522,-22.522,166.809,-32.715
-0.737,0.780,-0.538,-23.804,167.664,-33.386
-0.684,0.729,-0.580,-25.391,169.861,-35.522
-0.629,0.682,-0.635,-28.137,172.180,-38.635
-0.602,0.660,-0.674,-31.982,175.232,-43.457
-0.507,0.679,-0.730,-36.194,179.382,-49.194
-0.354,0.738,-0.784,-39.551,182.922,-54.321
-0.287,0.789,-0.816,-41.077,182.373,-56.030
-0.256,0.886,-0.821,-39.612,179.321,-53.223
-0.249,0.951,-0.799,-33.691,176.575,-49.011
-0.265,0.950,-0.783,-24.292,176.636,-46.021
-0.272,0.893,-0.796,-14.832,181.396,-43.091
-0.251,0.825,-0.814,-8.057,190.063,-40.894
-0.202,0.759,-0.828,-4.761,200.073,-40.100
-0.117,0.699,-0.847,-4.150,209.290,-41.199
0.018,0.678,-0.873,-5.859,216.309,-43.213
0.125,0.678,-0.886,-8.850,218.750,-44.983
0.179,0.722,-0.870,-11.169,216.553,-45.044
0.170,0.771,-0.830,-11.353,212.402,-44.434
0.152,0.807,-0.786,-8.423,210.266,-44.250
0.150,0.817,-0.746,-3.601,211.731,-44.434
0.182,0.798,-0.737,2.319,216.003,-43.152
0.250,0.766,-0.724,7.690,220.947,-39.551
0.314,0.729,-0.691,11.658,224.548,-35.767
0.376,0.694,-0.636,13.733,226.318,-33.325
0.443,0.665,-0.576,14.038,226.440,-33.081
0.524,0.641,-0.528,13.428,224.609,-33.813
0.605,0.630,-0.485,11.658,219.910,-35.156
0.660,0.657,-0.419,9.705,211.975,-36.499
0.694,0.697,-0.355,8.118,201.843,-37.354
0.710,0.758,-0.285,8.362,191.345,-36.926
0.706,0.819,-0.209,10.132,181.335,-34.851
0.710,0.853,-0.143,13.367,172.607,-31.311
0.734,0.865,-0.080,17.151,165.222,-27.100
0.759,0.845,-0.028,20.508,157.410,-22.949
0.767,0.817,0.024,22.156,148.926,-19.653
0.756,0.799,0.072,22.217,140.320,-17.822
0.729,0.801,0.124,20.874,132.263,-17.456
0.729,0.819,0.172,19.104,126.038,-17.395
0.735,0.839,0.214,17.151,120.239,-16.785
0.747,0.858,0.252,14.648,114.136,-15.320
0.761,0.882,0.290,12.146,107.056,-13.855
0.776,0.895,0.324,9.766,98.572,-11.230
0.764,0.904,0.356,7.446,88.318,-7.568
0.739,0.918,0.387,5.005,77.332,-4.395
0.699,0.922,0.409,2.625,66.406,-2.686
0.655,0.929,0.425,0.671,56.702,-1.221
0.618,0.939,0.437,-0.854,48.462,-0.244
0.597,0.949,0.439,-2.197,41.138,0.061
0.596,0.976,0.432,-3.296,34.241,-0.244
0.575,1.011,0.429,-3.540,26.672,-0.916
0.552,1.041,0.424,-2.747,19.226,-1.526
0.547,1.058,0.416,-0.916,12.024,-1.587
0.530,1.063,0.408,0.977,4.272,-0.549
0.501,1.050,0.404,2.563,-3.601,1.099
0.466,1.036,0.407,3.357,-10.864,2.258
0.442,1.030,0.411,3.174,-17.700,2.380
0.426,1.036,0.415,2.991,-24.170,1.953
0.418,1.047,0.422,3.418,-30.396,1.343
0.411,1.065,0.427,4.883,-36.804,0.366
0.407,1.077,0.420,7.141,-43.030,-0.732
0.406,1.078,0.409,10.071,-49.927,-1.282
0.401,1.070,0.389,12.512,-57.007,-0.305
0.382,1.041,0.358,14.160,-64.392,2.075
0.355,1.013,0.332,13.794,-71.350,4.639
0.329,0.995,0.308,11.414,-77.515,6.592
0.305,0.981,0.285,8.118,-82.581,8.362
0.296,0.981,0.260,4.150,-86.731,9.583
0.290,0.990,0.238,0.305,-90.454,10.559
0.292,1.012,0.218,-2.197,-94.421,11.658
0.298,1.046,0.195,-3.418,-98.877,12.634
0.313,1.094,0.173,-2.808,-104.065,14.221
0.314,1.126,0.150,0.000,-110.596,16.907
0.299,1.135,0.126,5.310,-118.225,20.752
0.266,1.114,0.101,12.329,-125.305,24.475
0.228,1.071,0.076,18.799,-130.920,27.100
0.192,1.021,0.056,23.987,-134.521,28.503
0.166,0.975,0.040,27.222,-136.108,28.931
0.172,0.930,0.015,28.992,-136.475,29.053
0.184,0.897,-0.006,29.175,-137.573,29.785
0.196,0.887,-0.025,28.259,-140.320,30.457
0.209,0.886,-0.053,27.466,-144.348,31.311
0.203,0.900,-0.077,27.527,-149.780,33.264
0.189,0.927,-0.100,29.175,-155.823,35.828
0.156,0.942,-0.128,32.959,-161.499,38.086
0.101,0.944,-0.143,38.452,-166.199,39.795
0.034,0.931,-0.148,44.678,-168.152,40.833
-0.029,0.896,-0.156,50.781,-166.443,40.649
-0.061,0.854,-0.165,55.420,-161.316,39.551
-0.060,0.808,-0.170,58.167,-154.968,37.903
-0.038,0.764,-0.176,58.533,-149.414,35.767
-0.015,0.724,-0.185,56.946,-146.362,33.569
0.003,0.689,-0.192,53.223,-146.545,31.738
0.016,0.667,-0.208,47.485,-149.353,30.273
0.000,0.648,-0.222,40.527,-154.114,29.175
-0.029,0.632,-0.238,32.471,-159.424,27.954
-0.057,0.638,-0.258,23.987,-164.185,27.344
-0.105,0.668,-0.263,16.479,-168.335,26.733
-0.172,0.716,-0.260,11.536,-170.654,26.062
-0.230,0.771,-0.245,9.827,-169.922,25.391
-0.274,0.818,-0.241,11.108,-165.771,24.292
-0.269,0.839,-0.247,14.404,-159.424,23.743
