aX,aY,aZ,gX,gY,gZ
-1.154,1.478,0.007,-687.683,-8.850,-117.310
-1.273,1.588,-0.168,-709.412,-29.419,-89.905
-1.511,1.483,-0.469,-723.083,-44.800,-48.645
-1.618,1.337,-0.631,-716.431,-49.561,-8.850
-1.824,1.122,-0.949,-699.829,-50.537,25.391
-1.962,0.894,-1.315,-672.913,-45.654,51.880
-2.047,0.670,-1.661,-626.221,-34.851,73.486
-2.109,0.312,-2.104,-542.847,-15.259,94.543
-2.109,-0.066,-2.624,-422.974,17.151,104.614
-2.029,-0.087,-3.039,-283.569,66.956,100.220
-1.875,0.120,-3.245,-174.744,132.202,78.735
-1.709,0.542,-3.260,-116.211,198.364,50.171
-1.449,0.982,-3.080,-95.764,261.230,27.222
-1.267,1.260,-2.882,-99.243,317.810,21.790
-1.097,1.365,-2.600,-110.229,367.920,30.518
-0.955,1.324,-2.335,-121.460,402.832,47.485
-0.819,1.211,-2.116,-127.808,421.082,67.749
-0.726,1.033,-1.930,-121.033,427.490,90.088
-0.618,0.785,-1.794,-105.835,423.279,111.694
-0.516,0.545,-1.705,-92.529,410.278,123.047
-0.448,0.448,-1.692,-79.468,394.348,119.629
-0.250,0.429,-1.698,-64.331,380.310,113.953
-0.064,0.506,-1.615,-43.152,371.582,107.117
0.059,0.619,-1.498,-23.621,365.417,102.600
0.153,0.664,-1.336,-10.315,354.370,98.328
0.210,0.784,-1.155,-0.671,332.581,88.928
0.179,0.932,-1.007,7.568,301.636,79.712
0.145,0.971,-0.912,13.855,264.099,79.346
0.237,0.948,-0.833,18.188,222.168,79.712
0.408,0.921,-0.843,21.057,178.467,75.684
0.619,0.920,-0.854,25.574,139.771,68.176
0.891,0.909,-0.845,28.870,108.643,62.744
1.123,0.813,-0.860,26.611,81.665,57.251
1.296,0.714,-0.881,20.386,59.082,43.762
1.358,0.623,-0.904,16.235,40.161,22.217
1.335,0.578,-0.913,18.860,23.621,-0.122
1.272,0.640,-0.942,28.503,4.700,-19.287
1.251,0.680,-0.993,40.649,-13.672,-33.386
1.230,0.711,-1.042,48.645,-25.452,-42.542
1.184,0.785,-1.062,51.575,-27.405,-48.462
1.109,0.860,-1.077,50.415,-22.278,-47.791
0.999,0.811,-1.066,47.302,-15.747,-40.466
0.840,0.698,-0.999,43.579,-7.141,-38.452
0.602,0.622,-0.942,36.743,1.282,-48.462
0.360,0.546,-0.851,34.119,3.601,-67.017
0.133,0.461,-0.709,44.922,-2.380,-88.318
-0.025,0.423,-0.617,72.021,-16.296,-108.276
-0.132,0.440,-0.581,108.093,-35.339,-127.258
-0.213,0.522,-0.632,141.541,-55.481,-145.996
-0.260,0.595,-0.695,164.551,-73.120,-164.917
-0.289,0.656,-0.756,175.110,-86.792,-184.082
-0.301,0.748,-0.780,178.528,-94.666,-201.660
-0.336,0.865,-0.728,184.753,-94.788,-211.914
-0.467,0.945,-0.605,203.064,-87.524,-209.839
-0.611,0.969,-0.439,236.267,-79.102,-202.209
-0.704,0.984,-0.296,274.597,-76.355,-200.623
-0.735,0.975,-0.228,305.847,-78.064,-206.238
-0.764,0.996,-0.166,327.637,-78.857,-215.820
-0.803,1.045,-0.095,339.661,-78.003,-227.539
-0.881,1.062,-0.007,342.163,-78.308,-234.802
-0.933,1.129,0.093,336.670,-79.346,-239.624
-0.937,1.220,0.174,325.989,-82.581,-242.554
-0.932,1.373,0.208,315.918,-92.590,-242.126
-0.916,1.516,0.174,306.946,-104.736,-234.802
-0.830,1.627,0.176,301.880,-113.281,-217.285
-0.757,1.642,0.178,302.490,-111.633,-194.763
-0.753,1.585,0.174,311.218,-95.520,-170.593
-0.787,1.411,0.243,328.674,-69.702,-146.912
-0.817,1.193,0.320,349.976,-41.199,-128.906
-0.839,1.032,0.394,372.986,-16.235,-119.019
-0.841,0.936,0.533,400.513,4.089,-113.525
-0.844,0.985,0.693,428.284,18.555,-104.187
-0.826,1.112,0.890,446.167,25.024,-87.219
-0.847,1.143,1.029,444.885,23.499,-63.171
-0.911,1.030,1.047,421.448,13.428,-35.767
-0.950,0.872,0.982,386.963,4.272,-15.991
-0.954,0.698,0.901,346.252,2.502,-8.972
-0.976,0.526,0.848,303.955,5.310,-10.254
-0.975,0.383,0.794,267.395,8.362,-16.052
-0.951,0.297,0.756,242.371,9.521,-24.109
-0.913,0.270,0.723,232.239,10.498,-29.724
-0.871,0.292,0.671,234.131,12.817,-28.503
-0.808,0.328,0.609,235.901,16.846,-20.386
-0.802,0.359,0.615,229.370,24.597,-9.644
-0.800,0.363,0.665,213.257,31.738,0.793
-0.782,0.321,0.745,186.401,33.691,6.897
-0.749,0.276,0.834,153.748,31.189,5.920
-0.704,0.214,0.890,121.948,26.550,0.610
-0.682,0.170,0.897,95.276,20.752,-5.615
-0.647,0.159,0.888,80.811,13.916,-8.972
-0.599,0.161,0.890,80.261,9.216,-7.324
-0.552,0.149,0.882,89.111,7.935,-1.404
-0.505,0.150,0.871,102.112,8.972,7.629
-0.477,0.139,0.872,112.061,13.062,14.954
-0.475,0.125,0.906,111.694,18.250,17.517
-0.472,0.085,0.939,98.877,18.738,15.747
-0.429,0.033,0.991,78.918,13.245,8.362
-0.378,0.009,1.019,57.556,5.127,-2.563
-0.377,0.030,1.043,39.368,-1.953,-12.573
-0.377,0.066,1.048,29.724,-9.399,-18.738
-0.381,0.088,1.005,30.579,-17.456,-18.555
-0.315,0.091,0.969,40.161,-23.437,-13.916
-0.308,0.086,0.897,52.063,-25.269,-6.531
-0.316,0.080,0.844,62.134,-22.339,0.000
-0.306,0.066,0.809,66.284,-17.273,2.563
-0.310,0.051,0.786,60.608,-12.268,2.502
-0.323,0.042,0.785,48.157,-7.812,-0.488
-0.334,0.042,0.800,35.583,-4.028,-5.005
-0.350,0.040,0.832,23.376,-1.160,-10.437
-0.353,0.040,0.864,12.207,-0.610,-16.174
-0.346,0.044,0.890,5.554,-1.770,-21.240
-0.341,0.066,0.909,3.479,-2.869,-24.353
-0.320,0.090,0.941,5.188,-2.197,-24.719
-0.327,0.093,0.960,6.287,-0.427,-20.569
-0.337,0.080,0.967,5.676,1.160,-13.916
-0.339,0.056,0.970,7.019,1.953,-7.874
-0.323,0.016,0.972,10.437,3.723,-4.517
-0.320,-0.029,0.984,12.024,5.798,-4.517
-0.307,-0.064,0.992,9.827,5.127,-7.935

-1.150,1.282,0.552,-320.740,38.635,-65.430
-1.247,1.424,0.463,-336.182,20.447,-44.617
-1.380,1.518,0.287,-347.717,7.446,-25.024
-1.467,1.600,0.094,-348.816,2.625,-6.409
-1.503,1.737,-0.062,-331.787,7.568,15.442
-1.558,2.081,-0.319,-289.856,24.292,48.828
-1.685,2.359,-0.396,-236.450,54.871,102.417
-1.743,2.566,-0.224,-208.008,84.106,155.884
-1.870,2.605,0.011,-217.407,99.365,193.542
-1.925,2.613,0.220,-267.273,92.957,207.458
-1.934,2.545,0.259,-337.891,69.275,203.674
-1.805,2.413,0.119,-394.043,45.837,194.214
-1.619,2.373,-0.112,-415.771,32.166,186.462
-1.356,2.604,-0.357,-410.706,30.884,187.073
-1.124,2.814,-0.584,-396.912,43.945,200.012
-0.943,2.852,-0.713,-395.203,67.932,215.881
-0.687,2.861,-0.676,-401.611,97.839,221.863
-0.574,2.833,-0.678,-407.410,124.207,227.112
-0.457,2.827,-0.645,-404.846,146.851,238.708
-0.344,2.719,-0.657,-394.836,159.058,250.549
-0.308,2.537,-0.563,-390.015,160.339,258.789
-0.133,2.446,-0.709,-415.100,139.404,250.305
0.022,2.126,-1.085,-413.757,138.306,233.093
0.170,1.874,-1.219,-364.014,152.893,239.868
0.243,1.685,-1.303,-298.401,182.190,235.229
0.365,1.746,-1.212,-243.103,209.351,223.145
0.476,1.938,-1.051,-206.238,229.858,213.623
0.530,1.902,-0.885,-190.796,239.319,222.778
0.488,1.586,-0.716,-188.477,236.023,240.173
0.414,1.251,-0.630,-184.998,222.595,243.530
0.424,1.068,-0.575,-171.692,199.524,231.079
0.467,0.983,-0.555,-143.494,172.119,217.346
0.581,1.021,-0.561,-107.727,147.949,209.229
0.692,0.953,-0.609,-83.862,128.784,204.956
0.765,0.811,-0.603,-80.444,116.943,196.350
0.829,0.641,-0.572,-86.792,111.633,175.598
0.852,0.410,-0.534,-91.064,108.643,151.611
0.883,0.273,-0.381,-87.280,106.750,128.235
0.873,0.194,-0.231,-76.599,99.548,107.605
0.943,0.133,-0.143,-62.683,85.876,95.032
0.545,0.070,-0.182,-45.227,78.491,86.182
0.719,0.005,-0.234,-32.776,87.646,86.365
0.623,-0.051,-0.181,-17.944,87.524,75.562
0.582,-0.090,-0.143,-5.066,80.017,53.528
0.511,-0.080,-0.071,2.380,70.679,30.518
0.455,-0.074,-0.019,10.193,61.157,9.949
0.383,-0.090,0.030,19.165,51.392,-6.165
0.296,-0.123,0.069,29.297,41.382,-22.278
0.197,-0.160,0.071,39.368,31.677,-41.199
0.158,-0.108,0.049,49.255,21.362,-64.636
0.141,0.047,-0.019,53.833,10.193,-86.487
0.109,0.170,-0.108,52.307,-0.427,-100.037
0.083,0.226,-0.165,45.898,-8.911,-107.483
0.051,0.260,-0.196,41.016,-17.151,-115.356
0.020,0.257,-0.228,39.856,-27.893,-124.573
-0.033,0.235,-0.236,44.495,-37.659,-135.315
-0.075,0.205,-0.246,56.396,-46.936,-148.926
-0.105,0.175,-0.280,75.562,-56.946,-167.175
-0.112,0.259,-0.313,100.159,-66.162,-191.650
-0.090,0.506,-0.399,128.906,-74.219,-216.064
-0.100,0.767,-0.509,156.921,-77.698,-229.553
-0.122,0.968,-0.584,181.458,-74.219,-228.088
-0.154,1.068,-0.624,199.463,-66.040,-219.177
-0.208,1.082,-0.584,207.947,-55.664,-210.510
-0.292,1.036,-0.501,209.595,-48.157,-205.933
-0.357,0.931,-0.439,212.830,-46.936,-208.191
-0.383,0.808,-0.357,226.746,-51.208,-221.069
-0.347,0.761,-0.279,258.423,-52.795,-246.643
-0.268,0.847,-0.142,314.209,-42.847,-276.672
-0.231,1.125,0.067,387.573,-21.973,-298.645
-0.178,1.587,0.281,460.571,2.197,-301.819
-0.354,2.021,0.463,507.812,22.583,-276.733
-0.481,2.295,0.595,523.010,31.860,-236.023
-0.582,2.271,0.562,500.610,26.123,-197.021
-0.619,2.030,0.531,446.594,15.747,-176.147
-0.622,1.782,0.544,387.329,12.817,-179.382
-0.639,1.564,0.616,341.125,19.775,-196.045
-0.642,1.458,0.765,317.749,31.799,-212.219
-0.688,1.426,0.961,323.486,49.316,-214.905
-0.778,1.412,1.211,352.051,69.214,-196.655
-0.853,1.427,1.400,386.169,79.468,-162.354
-0.912,1.410,1.548,412.781,77.087,-122.559
-0.923,1.427,1.528,411.438,65.979,-84.167
-0.928,1.433,1.436,387.207,52.856,-57.495
-0.937,1.340,1.290,350.525,43.213,-38.696
-0.952,1.181,1.166,309.204,41.626,-24.963
-0.973,1.002,1.099,272.339,47.485,-20.020
-1.012,0.784,1.062,242.615,56.030,-21.484
-1.016,0.603,1.054,219.360,59.265,-28.870
-0.996,0.469,1.041,205.627,58.105,-38.574
-0.955,0.409,1.012,202.576,56.946,-48.401
-0.912,0.395,0.948,202.026,54.871,-54.810
-0.884,0.425,0.897,197.388,51.147,-56.519
-0.833,0.473,0.881,188.110,49.072,-52.673
-0.866,0.482,0.920,169.617,47.546,-43.518
-0.880,0.428,0.888,140.198,43.213,-31.921
-0.874,0.311,0.852,111.084,37.537,-23.010
-0.857,0.151,0.811,86.182,33.630,-17.151
-0.861,0.002,0.774,71.167,32.715,-16.907
-0.832,-0.099,0.773,69.458,32.776,-21.667
-0.791,-0.159,0.766,79.590,33.325,-28.625
-0.755,-0.159,0.757,95.703,35.461,-35.522
-0.739,-0.116,0.816,111.145,38.391,-42.419
-0.738,-0.039,0.910,117.676,37.598,-47.913
-0.732,0.027,0.965,108.765,28.687,-51.086
-0.719,0.078,0.945,85.327,13.306,-52.307
-0.684,0.082,0.873,54.016,-2.380,-52.795
-0.631,0.072,0.821,26.001,-14.160,-53.589
-0.572,0.056,0.779,9.155,-20.691,-54.138
-0.528,0.051,0.750,3.784,-21.240,-52.551
-0.488,0.047,0.743,9.216,-18.066,-48.462
-0.464,0.045,0.755,23.254,-12.268,-41.748
-0.454,0.024,0.778,40.894,-5.737,-34.302
-0.454,-0.002,0.827,56.396,-2.747,-28.687
-0.427,-0.016,0.903,65.796,-5.493,-26.672
-0.414,-0.024,0.939,66.467,-12.634,-27.832
-0.386,-0.015,0.945,56.030,-23.254,-32.288
-0.354,-0.002,0.901,37.720,-33.875,-39.856
-0.334,0.052,0.849,15.564,-39.246,-48.462

-1.272,1.237,0.491,-443.115,12.939,-92.163
-1.308,1.397,0.396,-438.293,4.883,-69.702
-1.354,1.483,0.298,-426.331,4.944,-39.856
-1.449,1.502,0.248,-410.889,12.573,-10.803
-1.560,1.559,0.250,-389.221,22.888,14.526
-1.661,1.632,0.266,-363.037,28.442,41.321
-1.730,1.692,0.230,-335.022,25.269,68.787
-1.711,1.792,0.128,-309.326,17.395,93.201
-1.601,1.955,-0.052,-291.199,13.000,114.624
-1.520,2.065,-0.159,-282.349,19.043,135.864
-1.406,2.270,-0.220,-276.733,31.250,154.358
-1.254,2.477,-0.245,-280.396,47.241,172.424
-1.117,2.524,-0.246,-294.189,62.134,195.557
-1.050,2.352,-0.250,-303.955,74.890,225.952
-0.971,2.121,-0.335,-299.377,84.351,245.667
-0.896,2.006,-0.372,-281.067,89.539,249.939
-0.756,2.149,-0.450,-263.794,93.750,250.061
-0.630,2.142,-0.563,-266.113,95.764,254.944
-0.536,1.929,-0.630,-276.917,98.816,258.911
-0.392,1.716,-0.704,-288.086,105.896,253.174
-0.283,1.434,-0.745,-293.091,115.479,242.920
-0.234,1.179,-0.746,-278.748,127.319,231.689
-0.169,1.081,-0.681,-244.263,139.343,221.741
-0.112,0.993,-0.617,-205.322,147.461,215.027
-0.108,0.923,-0.451,-167.542,149.841,211.304
-0.103,0.859,-0.390,-134.949,139.832,204.224
-0.039,0.827,-0.372,-113.464,116.577,189.026
0.065,1.030,-0.353,-102.234,89.966,167.969
0.235,1.285,-0.524,-111.389,59.937,146.912
0.442,1.318,-0.717,-139.099,31.738,130.432
0.604,1.281,-0.845,-158.020,20.935,115.601
0.744,1.278,-0.907,-150.330,28.931,107.300
0.852,1.213,-0.800,-117.249,45.532,109.070
0.840,1.069,-0.630,-67.993,60.669,122.437
0.804,0.907,-0.487,-20.691,67.627,134.338
0.786,0.754,-0.353,9.705,62.317,132.324
0.732,0.755,-0.193,18.372,48.401,117.981
0.726,0.880,-0.198,-0.244,26.001,99.121
0.733,0.757,-0.281,-41.382,-1.892,83.557
0.714,0.549,-0.375,-79.651,-18.921,67.627
0.690,0.428,-0.446,-92.407,-20.813,50.171
0.676,0.422,-0.544,-80.261,-13.062,37.292
0.665,0.426,-0.558,-61.523,2.197,29.907
0.567,0.389,-0.448,-44.617,22.095,26.123
0.430,0.330,-0.314,-27.222,36.499,23.621
0.313,0.271,-0.200,-9.766,38.696,19.592
0.217,0.224,-0.162,2.747,30.212,12.268
0.148,0.211,-0.179,6.165,14.771,-0.610
0.115,0.257,-0.234,0.427,0.000,-16.235
0.083,0.286,-0.324,-11.108,-11.719,-30.273
0.058,0.284,-0.431,-20.691,-19.775,-42.175
0.045,0.255,-0.525,-23.132,-22.339,-53.650
-0.001,0.214,-0.557,-18.005,-18.311,-63.660
-0.078,0.145,-0.548,-5.676,-11.047,-73.608
-0.176,0.042,-0.492,11.475,-6.592,-85.815
-0.287,-0.081,-0.414,37.109,-6.042,-100.159
-0.377,-0.136,-0.365,74.585,-11.475,-116.211
-0.396,-0.072,-0.372,121.338,-21.729,-135.071
-0.320,0.218,-0.440,167.358,-30.090,-153.137
-0.297,0.497,-0.519,197.693,-31.616,-161.804
-0.322,0.714,-0.556,212.769,-23.804,-159.058
-0.401,0.808,-0.601,219.727,-12.329,-156.128
-0.471,0.806,-0.572,220.215,-4.456,-159.607
-0.535,0.773,-0.535,221.130,-0.732,-170.471
-0.583,0.681,-0.467,231.628,0.183,-188.049
-0.604,0.600,-0.343,256.653,0.732,-207.275
-0.578,0.591,-0.201,300.476,4.333,-227.722
-0.547,0.690,0.005,355.652,10.193,-248.962
-0.515,0.887,0.236,418.518,14.771,-264.709
-0.442,1.155,0.433,488.831,21.484,-267.517
-0.414,1.436,0.581,553.589,33.813,-253.296
-0.398,1.679,0.723,605.103,51.819,-220.947
-0.432,1.790,0.798,631.409,73.242,-175.781
-0.480,1.761,0.841,629.272,92.163,-131.897
-0.513,1.646,0.937,608.093,106.812,-101.013
-0.594,1.500,1.009,577.454,117.493,-83.801
-0.640,1.375,1.127,539.185,121.216,-77.393
-0.670,1.267,1.231,497.009,118.469,-79.102
-0.684,1.159,1.302,452.942,112.610,-77.637
-0.700,0.999,1.329,410.034,109.924,-66.650
-0.715,0.827,1.326,371.521,110.535,-52.124
-0.720,0.677,1.303,336.670,109.985,-40.833
-0.707,0.588,1.271,302.307,107.178,-32.959
-0.694,0.536,1.245,267.212,104.492,-27.344
-0.708,0.522,1.287,234.070,101.013,-24.414
-0.709,0.471,1.277,201.599,91.675,-20.996
-0.699,0.411,1.229,169.739,79.468,-19.226
-0.682,0.333,1.161,143.799,69.702,-20.020
-0.661,0.258,1.116,127.747,64.453,-22.766
-0.640,0.211,1.075,121.216,62.134,-26.245
-0.634,0.184,1.038,120.850,61.279,-28.381
-0.636,0.185,1.006,122.742,61.035,-29.175
-0.638,0.173,0.970,122.742,59.998,-28.931
-0.607,0.169,0.947,115.845,57.800,-28.809
-0.592,0.177,0.943,101.868,56.030,-29.358
-0.597,0.198,0.953,82.336,53.955,-30.823
-0.605,0.189,0.961,58.105,48.279,-31.921
-0.601,0.166,0.945,35.339,39.795,-32.410
-0.575,0.132,0.912,20.203,32.898,-32.227
-0.561,0.110,0.896,16.602,30.518,-29.907
-0.542,0.084,0.895,23.804,33.142,-25.452
-0.533,0.061,0.889,36.011,37.292,-20.752
-0.512,0.048,0.901,48.950,40.771,-17.151
-0.489,0.036,0.938,58.594,41.443,-15.930
-0.462,0.027,0.989,61.340,37.720,-16.907
-0.427,0.008,1.010,57.556,30.151,-20.081
-0.386,-0.004,0.988,48.096,19.958,-26.367
-0.354,0.005,0.941,36.743,12.207,-34.241
-0.328,0.043,0.927,26.367,10.559,-41.260
-0.323,0.086,0.937,17.822,13.367,-45.837
-0.318,0.118,0.945,10.864,16.113,-45.654
-0.307,0.134,0.968,6.470,17.151,-41.992
-0.299,0.132,0.998,5.676,16.174,-36.865
-0.295,0.125,1.044,8.423,12.207,-30.457
-0.285,0.098,1.072,13.367,5.981,-24.170
-0.261,0.036,1.056,16.663,-0.854,-18.921
-0.229,-0.018,1.039,18.677,-5.554,-17.456
-0.205,-0.057,1.002,20.264,-6.653,-20.996
-0.196,-0.060,0.965,18.677,-6.287,-27.161

-1.190,0.919,0.740,-311.707,-19.531,-68.970
-1.281,1.039,0.807,-331.970,-26.855,-58.167
-1.347,1.140,0.852,-353.088,-35.706,-45.654
-1.440,1.239,0.849,-364.624,-42.419,-27.466
-1.508,1.333,0.840,-362.854,-45.288,-5.005
-1.556,1.428,0.840,-349.609,-43.701,23.499
-1.575,1.519,0.839,-333.069,-39.795,59.692
-1.579,1.594,0.888,-320.435,-34.729,98.511
-1.571,1.704,1.010,-306.458,-25.452,132.263
-1.601,1.834,1.205,-294.067,-15.625,159.973
-1.548,1.870,1.346,-286.926,-17.151,186.829
-1.460,1.875,1.358,-281.372,-32.104,212.463
-1.330,1.806,1.230,-280.640,-49.133,233.398
-1.189,1.719,1.065,-288.330,-60.791,246.338
-1.091,1.690,0.906,-295.288,-66.284,248.779
-0.968,1.716,0.773,-304.749,-67.383,243.713
-0.808,1.863,0.623,-317.322,-67.017,233.398
-0.595,1.917,0.415,-329.590,-64.209,227.417
-0.412,1.887,0.225,-339.355,-52.673,228.638
-0.302,1.878,0.188,-340.759,-32.593,233.521
-0.249,1.771,0.183,-338.806,-18.921,242.554
-0.167,1.646,0.176,-342.712,-16.541,246.704
-0.114,1.557,0.117,-341.675,-17.151,241.455
-0.044,1.484,0.014,-329.224,-22.522,229.858
0.081,1.456,-0.123,-316.101,-30.884,216.858
0.186,1.459,-0.321,-317.932,-34.424,202.576
0.300,1.379,-0.476,-327.393,-31.311,186.340
0.420,1.305,-0.510,-330.627,-20.142,168.823
0.490,1.270,-0.467,-316.956,-5.493,154.175
0.581,1.172,-0.450,-276.428,3.662,151.855
0.700,1.071,-0.432,-213.135,10.986,158.936
0.762,1.001,-0.394,-147.949,19.714,165.283
0.818,0.945,-0.340,-98.755,23.560,163.574
0.834,0.852,-0.252,-75.806,23.315,151.794
0.824,0.787,-0.180,-78.247,17.700,131.958
0.826,0.726,-0.156,-89.600,9.338,108.032
0.845,0.651,-0.149,-100.647,2.930,85.876
0.804,0.585,-0.116,-105.164,-0.488,65.735
0.806,0.588,-0.125,-96.130,-5.005,51.147
0.799,0.545,-0.165,-78.125,-8.179,44.434
0.750,0.446,-0.187,-58.777,-7.202,41.687
0.693,0.333,-0.182,-38.879,-2.319,36.011
0.632,0.270,-0.172,-18.127,3.784,25.635
0.585,0.271,-0.168,1.160,9.277,13.489
0.529,0.324,-0.185,14.709,11.719,1.343
0.475,0.387,-0.206,19.653,10.925,-10.010
0.421,0.424,-0.248,17.273,9.705,-20.264
0.349,0.402,-0.265,12.268,9.155,-28.625
0.264,0.357,-0.269,10.742,7.629,-38.269
0.205,0.321,-0.291,16.724,3.235,-49.561
0.160,0.302,-0.353,29.480,-2.380,-62.195
0.128,0.275,-0.433,47.852,-7.202,-75.806
0.104,0.234,-0.484,72.021,-7.385,-89.661
0.077,0.219,-0.505,103.271,-2.258,-103.821
0.044,0.256,-0.533,140.137,5.493,-118.469
0.014,0.350,-0.516,178.772,14.832,-131.165
-0.037,0.549,-0.494,216.980,26.855,-137.634
-0.122,0.697,-0.510,249.390,38.086,-134.033
-0.188,0.720,-0.511,275.513,50.049,-124.756
-0.277,0.700,-0.454,295.837,66.589,-122.070
-0.379,0.678,-0.349,310.181,82.336,-131.836
-0.445,0.649,-0.212,321.899,91.248,-151.672
-0.473,0.617,-0.055,338.745,96.130,-177.002
-0.476,0.642,0.122,364.746,100.464,-202.332
-0.455,0.747,0.336,402.954,104.736,-224.792
-0.453,0.943,0.608,450.439,110.352,-237.122
-0.479,1.203,0.851,495.300,113.770,-237.305
-0.503,1.563,1.051,524.475,111.755,-224.854
-0.550,1.886,1.112,524.170,104.248,-198.792
-0.583,1.990,1.012,488.647,93.140,-165.039
-0.601,1.921,0.861,428.589,85.754,-141.724
-0.616,1.742,0.770,365.479,88.135,-135.742
-0.645,1.543,0.878,318.542,100.098,-137.024
-0.696,1.337,1.042,299.316,117.615,-131.287
-0.797,1.136,1.192,299.438,133.118,-113.464
-0.861,0.963,1.343,309.387,140.625,-91.492
-0.892,0.826,1.467,323.120,140.076,-70.129
-0.906,0.736,1.542,334.778,132.629,-52.246
-0.923,0.683,1.563,340.149,119.812,-39.246
-0.902,0.684,1.526,335.083,104.858,-32.959
-0.896,0.718,1.464,315.308,89.111,-31.982
-0.858,0.728,1.356,283.264,74.280,-33.386
-0.826,0.730,1.253,246.826,64.331,-33.020
-0.826,0.660,1.140,215.637,63.782,-28.320
-0.820,0.542,1.059,193.115,68.420,-20.874
-0.796,0.428,1.001,178.650,73.364,-13.916
-0.770,0.333,0.974,168.945,77.148,-9.644
-0.737,0.260,0.988,161.133,78.735,-7.629
-0.701,0.215,1.019,152.283,76.477,-8.057
-0.673,0.200,1.029,141.357,69.885,-9.705
-0.635,0.188,1.031,129.761,61.951,-12.085
-0.613,0.173,1.004,116.943,53.833,-13.611
-0.594,0.161,0.972,103.271,46.631,-14.099
-0.594,0.148,0.914,89.783,41.504,-13.916
-0.583,0.137,0.857,74.951,36.865,-12.085
-0.549,0.108,0.819,59.814,32.898,-10.742
-0.528,0.066,0.797,45.898,30.945,-10.437
-0.492,0.020,0.802,36.987,28.748,-10.864
-0.466,-0.014,0.823,35.522,25.940,-11.780
-0.441,-0.034,0.850,39.246,23.132,-12.756
-0.418,-0.055,0.885,44.495,20.508,-14.587
-0.415,-0.063,0.911,48.218,17.395,-18.188
-0.403,-0.055,0.923,50.110,12.817,-23.560
-0.387,-0.032,0.904,48.340,6.958,-29.236
-0.368,-0.002,0.874,42.603,1.770,-34.424
-0.335,0.015,0.848,35.461,-0.671,-37.964
-0.307,0.017,0.834,27.710,0.488,-39.734
-0.296,0.017,0.842,20.691,4.639,-39.978
-0.302,0.004,0.859,15.625,9.888,-38.574
-0.293,0.003,0.902,11.353,12.512,-36.560
-0.286,0.012,0.988,8.545,12.939,-34.973
-0.305,0.009,1.051,6.714,10.132,-33.142
-0.300,-0.002,1.085,5.554,2.258,-32.349
-0.270,-0.010,1.081,6.836,-7.263,-33.142
-0.241,-0.003,1.050,9.888,-15.015,-34.790
-0.226,0.018,1.002,13.428,-19.165,-35.522
-0.199,0.032,0.963,16.907,-19.470,-33.020
-0.191,0.025,0.932,19.531,-15.686,-28.503
-0.184,-0.002,0.915,20.081,-10.071,-24.048

-1.143,0.896,0.698,-250.427,-11.780,-24.353
-1.239,0.987,0.643,-253.601,-11.047,-8.118
-1.334,1.078,0.656,-263.977,-7.751,5.249
-1.411,1.179,0.762,-279.297,-3.845,15.747
-1.494,1.261,0.878,-293.030,-3.296,23.743
-1.540,1.348,0.949,-299.500,-8.484,32.471
-1.568,1.440,0.991,-291.992,-18.433,44.128
-1.626,1.607,0.965,-266.724,-28.076,64.453
-1.625,1.765,0.917,-239.380,-34.180,94.666
-1.662,1.813,0.857,-225.281,-40.588,126.892
-1.607,1.886,0.835,-224.609,-44.434,147.827
-1.523,2.035,0.868,-244.080,-42.114,153.870
-1.408,2.282,0.958,-279.480,-39.429,151.978
-1.218,2.513,1.040,-315.918,-40.283,155.457
-1.013,2.591,1.076,-346.558,-46.265,172.913
-0.780,2.528,0.975,-360.046,-54.626,201.172
-0.549,2.408,0.812,-355.103,-59.021,231.995
-0.332,2.273,0.625,-347.046,-56.152,251.465
-0.206,2.134,0.486,-347.961,-43.701,257.812
-0.094,2.091,0.431,-355.469,-26.062,256.226
-0.007,2.022,0.407,-372.009,-11.169,253.052
0.077,1.934,0.372,-390.625,0.244,250.916
0.173,1.771,0.377,-401.184,12.085,249.939
0.214,1.595,0.390,-399.170,23.193,246.460
0.278,1.455,0.371,-388.428,31.250,237.793
0.306,1.288,0.336,-365.234,33.813,230.103
0.359,1.152,0.247,-324.036,30.457,224.487
0.390,1.061,0.078,-273.987,24.902,218.689
0.462,1.051,-0.065,-229.553,21.606,209.167
0.543,1.151,-0.134,-199.768,21.423,197.266
0.667,1.309,-0.224,-187.927,20.752,184.814
0.796,1.304,-0.330,-194.153,17.456,175.659
0.909,1.113,-0.400,-201.233,17.700,169.250
0.977,0.889,-0.377,-193.237,23.010,161.926
0.999,0.655,-0.341,-162.415,29.785,155.212
1.003,0.455,-0.299,-114.868,33.325,149.780
1.021,0.338,-0.306,-65.735,33.020,141.541
1.000,0.257,-0.302,-33.203,30.334,126.587
0.961,0.226,-0.285,-18.860,26.367,103.821
0.890,0.200,-0.261,-19.409,22.034,78.918
0.826,0.185,-0.246,-24.841,17.151,56.641
0.765,0.123,-0.276,-31.921,13.184,35.828
0.720,0.072,-0.294,-37.598,12.634,15.320
0.668,0.097,-0.306,-36.987,16.418,-4.700
0.589,0.147,-0.312,-30.029,20.935,-22.095
0.500,0.193,-0.316,-17.273,23.804,-34.485
0.398,0.195,-0.305,-2.075,26.550,-42.542
0.279,0.171,-0.312,15.686,28.625,-50.049
0.197,0.150,-0.326,37.170,28.503,-58.777
0.108,0.150,-0.336,58.716,27.893,-70.740
0.033,0.178,-0.343,76.782,25.635,-84.473
-0.045,0.218,-0.342,89.417,20.203,-101.318
-0.093,0.304,-0.358,94.910,11.536,-121.460
-0.137,0.388,-0.385,94.299,2.563,-141.235
-0.186,0.520,-0.386,93.018,-4.272,-156.921
-0.239,0.637,-0.421,96.924,-9.888,-164.429
-0.309,0.677,-0.479,107.788,-14.160,-163.452
-0.352,0.671,-0.521,126.343,-15.564,-161.316
-0.389,0.648,-0.537,151.733,-11.780,-163.086
-0.437,0.642,-0.485,181.091,-5.432,-172.729
-0.463,0.650,-0.376,217.529,0.427,-187.378
-0.452,0.664,-0.240,264.709,8.606,-203.247
-0.448,0.755,-0.058,321.655,20.264,-218.506
-0.423,0.945,0.127,386.047,32.349,-229.126
-0.405,1.281,0.306,447.754,42.786,-225.220
-0.416,1.591,0.390,493.652,50.476,-199.402
-0.433,1.744,0.402,518.372,56.335,-158.081
-0.436,1.736,0.363,519.104,62.866,-120.178
-0.443,1.668,0.384,495.300,72.632,-100.647
-0.463,1.555,0.527,460.754,86.182,-98.206
-0.536,1.402,0.758,427.795,102.844,-100.952
-0.630,1.262,0.983,403.442,116.577,-100.464
-0.715,1.125,1.185,391.357,120.422,-92.407
-0.771,1.004,1.297,389.343,115.417,-77.942
-0.776,0.953,1.316,389.893,102.417,-62.134
-0.739,0.915,1.257,385.681,86.853,-48.889
-0.692,0.910,1.191,374.512,74.890,-40.710
-0.662,0.933,1.130,357.727,70.007,-36.194
-0.653,0.948,1.096,334.473,71.106,-32.410
-0.666,0.914,1.077,309.387,78.125,-27.710
-0.694,0.822,1.089,284.058,87.158,-21.729
-0.712,0.682,1.116,259.521,92.712,-15.869
-0.723,0.509,1.151,238.892,94.421,-13.977
-0.721,0.385,1.182,222.290,91.431,-17.029
-0.709,0.293,1.181,209.534,85.083,-21.973
-0.684,0.266,1.173,200.134,77.148,-27.405
-0.673,0.271,1.153,192.810,70.313,-31.494
-0.678,0.296,1.094,182.373,65.186,-32.227
-0.679,0.324,1.030,164.978,61.096,-29.419
-0.681,0.321,0.984,141.602,60.730,-24.841
-0.688,0.265,0.951,114.014,63.477,-19.653
-0.686,0.177,0.947,87.524,66.284,-14.954
-0.683,0.078,0.978,68.909,67.810,-11.902
-0.691,-0.007,1.008,61.279,66.589,-10.071
-0.681,-0.052,1.025,61.340,61.646,-10.376
-0.668,-0.068,1.032,64.392,54.077,-13.184
-0.648,-0.061,1.022,67.200,46.021,-17.029
-0.629,-0.041,1.001,67.078,38.269,-20.996
-0.602,-0.029,0.989,62.866,31.433,-24.048
-0.569,-0.026,0.969,55.298,25.940,-27.161
-0.558,-0.016,0.948,45.715,22.156,-29.846
-0.548,-0.000,0.935,37.170,20.020,-31.494
-0.524,0.009,0.922,28.931,17.029,-32.043
-0.494,0.001,0.916,22.827,14.221,-31.311
-0.470,-0.028,0.939,21.912,12.573,-30.273
-0.443,-0.062,0.965,26.672,8.484,-30.762
-0.404,-0.065,0.983,34.302,2.075,-33.020
-0.380,-0.044,0.963,41.626,-3.357,-35.950
-0.354,-0.023,0.923,44.617,-8.057,-37.903
-0.315,-0.004,0.895,42.114,-11.475,-39.124
-0.286,0.004,0.866,33.936,-13.184,-40.405
-0.271,0.011,0.844,23.437,-11.841,-41.199
-0.276,0.029,0.844,12.573,-8.057,-41.443
-0.282,0.038,0.874,4.517,-4.761,-40.039
-0.276,0.033,0.903,0.061,-3.784,-36.682
-0.263,0.027,0.931,-0.366,-5.005,-32.227
-0.250,-0.000,0.928,3.357,-6.104,-27.710
-0.235,-0.020,0.916,9.094,-7.629,-24.292
-0.220,-0.024,0.913,13.855,-8.423,-23.193

-1.236,0.727,0.988,-252.991,16.479,-56.580
-1.291,0.819,0.967,-245.789,-2.869,-43.884
-1.369,0.894,0.910,-240.906,-21.729,-27.954
-1.435,0.969,0.863,-238.708,-36.133,-12.146
-1.470,1.108,0.835,-244.873,-44.312,-0.244
-1.480,1.246,0.837,-267.517,-49.377,7.263
-1.548,1.330,0.774,-301.147,-53.162,11.963
-1.576,1.360,0.739,-330.688,-54.016,15.503
-1.579,1.383,0.686,-343.811,-62.073,19.043
-1.534,1.406,0.578,-338.501,-71.594,29.480
-1.476,1.482,0.501,-319.702,-74.890,47.852
-1.397,1.632,0.488,-286.499,-73.059,75.439
-1.310,1.794,0.412,-247.009,-68.054,112.732
-1.192,1.901,0.268,-223.938,-62.622,149.231
-1.107,1.947,0.181,-222.351,-52.917,173.889
-1.030,1.983,0.173,-237.976,-42.969,185.486
-0.950,2.010,0.143,-259.338,-37.537,188.416
-0.854,2.069,0.110,-274.963,-32.349,189.941
-0.748,2.126,0.073,-282.776,-26.794,195.129
-0.640,2.119,-0.021,-287.781,-22.949,202.209
-0.521,2.060,-0.159,-284.668,-18.616,207.947
-0.389,2.045,-0.313,-269.775,-9.705,211.914
-0.280,2.081,-0.416,-248.535,3.723,214.966
-0.176,2.101,-0.477,-233.276,19.653,217.224
-0.084,2.035,-0.510,-238.525,32.959,214.539
0.021,1.898,-0.532,-253.540,44.983,205.322
0.124,1.751,-0.525,-268.311,62.744,192.139
0.200,1.564,-0.481,-280.212,80.505,177.917
0.251,1.427,-0.344,-282.837,93.445,161.804
0.181,1.276,-0.107,-269.775,94.849,148.315
0.286,1.244,-0.045,-261.902,68.542,139.038
0.396,1.023,-0.166,-221.130,53.040,140.076
0.437,0.910,-0.227,-154.541,47.852,160.645
0.456,0.868,-0.238,-102.478,46.570,163.818
0.475,0.857,-0.192,-79.224,43.701,152.710
0.494,0.853,-0.151,-82.092,38.757,134.033
0.546,0.811,-0.116,-94.055,32.959,115.051
0.640,0.727,-0.075,-102.661,26.855,98.999
0.747,0.622,-0.015,-106.567,25.085,85.388
0.818,0.573,0.057,-106.323,26.001,71.777
0.825,0.585,0.146,-104.553,24.841,57.495
0.808,0.545,0.158,-96.680,17.090,47.241
0.804,0.490,0.140,-80.750,3.784,42.358
0.793,0.426,0.089,-60.059,-7.324,37.170
0.791,0.392,0.025,-42.297,-9.766,31.006
0.752,0.375,-0.013,-25.574,-6.836,24.536
0.703,0.392,-0.035,-11.353,-1.953,17.700
0.641,0.418,-0.077,-2.441,3.296,10.620
0.578,0.414,-0.125,-0.793,5.066,3.113
0.517,0.378,-0.176,-2.075,3.967,-5.371
0.457,0.333,-0.231,-3.418,3.113,-17.334
0.399,0.298,-0.281,-1.465,2.747,-32.227
0.321,0.279,-0.307,6.348,3.540,-47.913
0.221,0.260,-0.306,22.583,3.967,-62.317
0.122,0.221,-0.278,50.171,3.479,-73.181
0.021,0.200,-0.250,86.060,2.014,-83.069
-0.048,0.229,-0.262,123.474,-1.038,-95.032
-0.074,0.318,-0.281,156.799,-4.272,-109.619
-0.096,0.466,-0.315,181.519,-5.798,-123.474
-0.121,0.592,-0.354,195.496,-4.883,-132.507
-0.177,0.637,-0.376,199.524,-2.808,-138.367
-0.238,0.645,-0.371,198.608,-3.418,-145.996
-0.289,0.636,-0.330,199.463,-5.737,-159.851
-0.345,0.638,-0.260,208.313,-8.850,-177.917
-0.365,0.631,-0.185,231.567,-12.939,-195.007
-0.350,0.645,-0.067,273.071,-14.099,-208.801
-0.324,0.733,0.047,334.412,-8.179,-219.421
-0.292,0.894,0.160,404.236,2.747,-223.572
-0.268,1.142,0.306,472.473,18.005,-220.276
-0.269,1.503,0.464,527.039,35.278,-207.886
-0.328,1.821,0.542,552.063,49.866,-181.396
-0.403,1.975,0.611,531.982,59.204,-152.161
-0.492,1.937,0.685,469.910,60.120,-136.169
-0.558,1.758,0.730,388.367,53.955,-134.644
-0.614,1.516,0.805,316.956,47.913,-143.005
-0.623,1.317,0.898,279.419,46.387,-153.992
-0.649,1.177,0.993,281.006,49.988,-157.532
-0.660,1.083,1.052,310.364,54.321,-152.710
-0.653,1.110,1.102,353.943,57.678,-139.771
-0.663,1.213,1.126,395.264,61.340,-117.920
-0.695,1.377,1.141,415.344,66.345,-90.820
-0.745,1.492,1.139,399.292,66.895,-62.439
-0.778,1.491,1.105,351.318,64.636,-34.607
-0.807,1.375,1.062,285.461,61.829,-11.597
-0.802,1.177,1.007,223.755,61.584,3.540
-0.822,0.949,0.989,179.565,65.369,11.108
-0.806,0.758,1.017,157.593,69.336,14.160
-0.807,0.619,1.047,159.729,72.449,19.104
-0.804,0.517,1.045,178.040,75.500,27.710
-0.781,0.459,1.083,199.585,75.073,35.400
-0.777,0.428,1.139,213.806,70.068,39.856
-0.773,0.414,1.127,211.792,60.059,41.626
-0.777,0.409,1.093,190.918,47.791,39.246
-0.783,0.385,1.022,156.067,37.231,33.020
-0.778,0.335,0.960,113.708,30.579,24.780
-0.769,0.257,0.945,73.059,28.320,15.259
-0.750,0.158,0.951,41.809,28.259,6.531
-0.736,0.086,0.957,24.658,27.222,0.549
-0.704,0.062,0.961,26.184,26.123,-1.099
-0.673,0.059,0.959,42.969,26.367,3.235
-0.642,0.083,0.980,64.270,26.245,10.803
-0.618,0.109,1.011,79.163,22.827,18.005
-0.596,0.101,1.009,79.529,14.771,22.583
-0.546,0.071,0.981,66.711,3.235,23.254
-0.499,0.031,0.935,50.110,-6.165,19.592
-0.457,-0.005,0.885,37.598,-11.414,14.709
-0.415,-0.027,0.838,32.349,-12.634,10.986
-0.388,-0.029,0.805,32.410,-9.766,8.240
-0.372,-0.024,0.787,34.607,-4.761,6.897
-0.351,-0.015,0.784,37.292,-0.549,7.019
-0.324,-0.008,0.798,39.246,3.296,7.751
-0.308,0.004,0.872,38.757,6.226,7.874
-0.319,-0.008,0.971,35.889,4.761,6.958
-0.308,-0.019,0.995,32.593,-1.465,5.859
-0.298,-0.021,0.976,31.189,-8.667,4.456
-0.282,-0.027,0.932,30.640,-13.184,3.418
-0.264,-0.026,0.915,28.320,-13.916,1.099
-0.250,-0.023,0.902,24.475,-11.658,-1.892
-0.249,-0.018,0.873,17.822,-9.338,-3.906

-1.369,0.714,1.055,-171.875,35.400,-51.331
-1.531,0.833,1.131,-188.904,17.639,-42.114
-1.676,0.889,1.137,-211.182,-4.272,-29.053
-1.799,0.933,1.091,-234.009,-25.696,-18.433
-1.930,1.024,0.999,-256.775,-41.443,-9.827
-2.095,1.129,0.929,-283.813,-51.636,-4.211
-2.176,1.302,0.876,-310.913,-60.486,-1.770
-2.257,1.557,0.868,-336.548,-63.782,6.042
-2.235,1.883,0.932,-362.305,-63.843,19.470
-2.136,2.208,1.060,-392.151,-66.162,41.016
-2.005,2.550,1.210,-424.561,-69.336,71.960
-1.809,2.759,1.289,-454.712,-74.097,112.000
-1.548,2.908,1.253,-470.398,-77.393,156.555
-1.265,2.875,1.159,-481.567,-75.989,199.524
-0.962,2.702,1.034,-482.361,-70.251,232.056
-0.681,2.528,0.819,-466.003,-61.035,251.099
-0.447,2.415,0.593,-445.007,-47.729,259.521
-0.253,2.385,0.431,-425.659,-27.344,260.193
-0.063,2.486,0.323,-414.429,-3.113,258.850
0.085,2.535,0.279,-419.861,20.813,257.507
0.192,2.464,0.308,-423.889,43.396,257.751
0.323,2.291,0.324,-400.269,59.326,264.404
0.456,1.987,0.236,-351.501,65.430,276.245
0.561,1.762,0.164,-288.818,67.871,282.593
0.631,1.667,0.119,-234.558,70.129,278.198
0.702,1.561,0.072,-208.679,67.139,264.954
0.773,1.422,0.007,-201.111,64.270,245.728
0.825,1.261,-0.011,-198.792,65.918,225.037
0.918,1.144,0.030,-191.650,68.726,203.430
0.989,1.107,0.222,-177.246,69.031,183.289
0.961,0.957,0.297,-170.532,52.246,167.297
1.121,0.816,0.289,-189.758,28.503,141.418
1.113,0.690,0.196,-176.331,16.907,135.010
1.183,0.597,0.055,-148.254,2.258,129.150
1.225,0.530,-0.133,-122.681,-6.042,115.845
1.268,0.469,-0.245,-105.774,-6.897,97.961
1.223,0.341,-0.287,-90.576,-1.099,78.308
1.177,0.204,-0.280,-71.594,8.179,60.547
1.094,0.139,-0.233,-48.401,19.409,43.457
1.022,0.188,-0.171,-24.109,29.236,31.372
0.926,0.239,-0.135,-8.118,37.476,24.902
0.790,0.198,-0.108,-7.629,40.955,20.325
0.674,0.136,-0.079,-13.000,38.635,8.972
0.550,0.129,-0.045,-16.235,31.189,-9.644
0.445,0.156,-0.072,-11.230,19.531,-27.161
0.384,0.179,-0.160,-0.427,7.446,-40.344
0.309,0.196,-0.257,10.376,0.366,-53.223
0.223,0.199,-0.322,20.996,-1.404,-68.420
0.138,0.188,-0.344,34.607,-1.831,-84.900
0.064,0.186,-0.356,53.284,-2.747,-102.844
0.013,0.259,-0.355,78.064,-3.662,-119.202
-0.037,0.389,-0.339,107.422,-3.113,-129.272
-0.091,0.551,-0.309,137.146,-1.343,-129.761
-0.149,0.662,-0.326,163.940,-0.427,-123.352
-0.198,0.718,-0.359,177.124,-0.061,-120.605
-0.248,0.752,-0.381,175.049,0.244,-129.272
-0.303,0.767,-0.399,164.917,1.038,-146.423
-0.338,0.750,-0.377,156.799,3.113,-167.297
-0.371,0.713,-0.291,161.804,7.385,-188.110
-0.404,0.713,-0.144,189.880,14.038,-207.275
-0.442,0.876,0.122,243.164,21.545,-220.825
-0.483,1.155,0.341,313.354,23.804,-218.262
-0.497,1.496,0.425,378.723,18.860,-194.214
-0.466,1.798,0.370,414.429,15.198,-161.743
-0.445,1.958,0.243,410.339,20.203,-131.104
-0.472,1.964,0.147,368.652,34.302,-111.572
-0.528,1.860,0.162,307.678,54.504,-107.117
-0.574,1.698,0.308,248.352,75.317,-112.671
-0.661,1.476,0.472,205.444,94.238,-118.286
-0.747,1.246,0.730,189.209,106.506,-120.667
-0.810,1.059,1.000,206.604,110.657,-118.347
-0.855,0.951,1.179,248.230,104.736,-105.042
-0.826,0.946,1.229,302.917,90.759,-87.769
-0.784,1.043,1.199,355.530,77.271,-69.275
-0.760,1.147,1.119,386.536,70.068,-48.950
-0.751,1.244,1.022,385.803,66.956,-32.715
-0.754,1.299,0.981,357.666,69.885,-22.095
-0.802,1.258,0.964,308.899,75.867,-13.245
-0.842,1.130,0.997,250.061,76.965,-8.484
-0.854,0.959,1.026,194.214,71.045,-9.827
-0.864,0.732,1.037,153.259,63.538,-14.587
-0.857,0.538,1.048,135.864,56.030,-23.621
-0.827,0.405,1.051,142.212,47.607,-33.142
-0.778,0.348,1.024,168.274,40.588,-39.490
-0.725,0.394,0.986,205.017,36.682,-38.818
-0.685,0.527,0.955,236.816,35.645,-31.311
-0.684,0.634,0.908,247.620,36.194,-16.296
-0.701,0.672,0.893,236.389,36.621,1.831
-0.708,0.605,0.894,211.975,37.964,18.799
-0.707,0.476,0.888,182.251,39.001,31.860
-0.699,0.309,0.891,154.419,40.710,38.574
-0.676,0.147,0.906,132.507,40.466,38.269
-0.649,-0.000,0.901,119.385,37.903,31.433
-0.623,-0.086,0.880,112.549,34.119,18.433
-0.595,-0.098,0.852,110.962,28.931,1.709
-0.557,-0.064,0.833,117.310,25.635,-13.245
-0.527,0.005,0.799,127.197,25.940,-24.475
-0.520,0.109,0.774,129.761,28.259,-31.067
-0.533,0.188,0.750,116.455,30.640,-33.386
-0.542,0.222,0.738,87.036,31.189,-33.203
-0.519,0.197,0.741,52.063,30.396,-32.349
-0.486,0.121,0.741,22.522,29.236,-30.334
-0.462,0.047,0.739,5.188,28.137,-28.625
-0.420,-0.005,0.775,3.113,27.405,-27.039
-0.389,-0.042,0.844,14.221,26.489,-24.780
-0.387,-0.057,0.899,33.813,23.804,-21.484
-0.379,-0.034,0.960,56.091,18.005,-18.250
-0.378,-0.016,0.978,75.195,11.230,-15.320
-0.369,0.005,0.964,83.801,4.395,-14.099
-0.361,0.012,0.910,79.529,0.244,-15.625
-0.349,0.000,0.850,63.538,-0.916,-19.958
-0.334,-0.011,0.813,43.152,0.977,-26.672
-0.326,-0.025,0.802,24.414,6.836,-33.264
-0.311,-0.032,0.825,10.803,13.184,-38.391
-0.301,-0.025,0.866,3.723,17.761,-41.565
-0.304,-0.019,0.919,1.282,18.921,-42.114
-0.302,-0.011,0.977,2.563,16.724,-40.710
-0.305,-0.003,1.024,7.751,13.489,-38.574
-0.314,-0.001,1.061,14.954,9.888,-35.767

-1.400,1.473,-0.057,-169.006,-12.939,-60.120
-1.447,1.774,-0.078,-165.039,-3.601,-39.001
-1.512,1.950,0.000,-177.246,7.751,-12.756
-1.574,1.981,0.098,-196.411,16.418,15.198
-1.591,2.035,0.167,-212.158,19.531,42.786
-1.590,2.104,0.177,-222.412,19.348,71.533
-1.627,2.076,0.229,-229.614,21.912,104.797
-1.592,1.998,0.275,-226.624,22.034,133.484
-1.572,2.063,0.285,-215.515,23.132,153.992
-1.486,2.276,0.289,-207.336,24.902,167.542
-1.353,2.488,0.313,-211.426,26.245,184.509
-1.178,2.580,0.287,-229.309,29.846,204.224
-0.995,2.560,0.306,-252.380,36.072,220.825
-0.840,2.425,0.334,-270.874,42.297,233.398
-0.700,2.258,0.359,-277.222,44.800,240.845
-0.580,2.115,0.331,-262.268,42.480,245.483
-0.435,2.173,0.214,-230.896,37.903,249.512
-0.276,2.286,0.044,-205.627,35.706,254.639
-0.136,2.386,-0.098,-203.186,39.612,257.996
-0.023,2.368,-0.196,-220.703,48.035,255.432
0.063,2.232,-0.283,-239.563,58.777,249.573
0.176,2.130,-0.330,-242.493,72.449,243.347
0.247,2.063,-0.296,-232.788,87.280,238.647
0.288,1.932,-0.263,-209.351,98.328,240.356
0.331,1.790,-0.279,-175.415,103.699,247.864
0.354,1.625,-0.307,-146.118,105.774,251.404
0.357,1.504,-0.298,-124.817,106.384,245.728
0.374,1.487,-0.269,-110.352,103.943,233.276
0.390,1.502,-0.265,-106.628,96.069,220.703
0.247,1.446,-0.220,-119.507,80.322,208.801
0.510,1.499,-0.196,-170.044,50.415,181.519
0.532,1.360,-0.362,-192.627,41.565,165.894
0.596,1.098,-0.411,-174.805,41.199,172.241
0.614,0.860,-0.448,-132.568,50.537,173.767
0.652,0.674,-0.406,-85.571,60.181,167.969
0.697,0.605,-0.352,-37.415,67.383,156.494
0.738,0.635,-0.278,4.517,71.228,147.644
0.736,0.626,-0.195,26.855,70.740,143.005
0.702,0.511,-0.111,23.376,64.697,135.742
0.687,0.375,-0.015,2.136,51.636,118.225
0.683,0.256,0.053,-22.888,32.837,92.773
0.713,0.166,0.094,-40.466,14.587,68.909
0.721,0.089,0.095,-42.358,-0.366,50.476
0.748,0.037,0.062,-32.227,-12.207,36.804
0.740,0.027,0.008,-16.235,-19.470,26.489
0.716,0.040,-0.076,0.305,-20.935,14.465
0.691,0.069,-0.135,12.512,-18.860,-0.122
0.641,0.103,-0.159,20.935,-14.771,-14.832
0.560,0.145,-0.168,28.381,-12.329,-30.640
0.518,0.232,-0.183,33.508,-14.160,-48.889
0.457,0.315,-0.200,31.128,-19.104,-67.993
0.399,0.393,-0.225,23.437,-25.696,-87.524
0.355,0.434,-0.264,15.991,-33.691,-106.262
0.301,0.460,-0.301,12.939,-39.795,-121.826
0.260,0.519,-0.361,14.954,-45.166,-137.756
0.241,0.587,-0.448,20.691,-50.049,-154.419
0.211,0.646,-0.520,30.090,-50.293,-170.349
0.166,0.693,-0.564,50.110,-44.128,-183.472
0.116,0.733,-0.567,86.182,-31.128,-192.322
0.076,0.891,-0.493,132.935,-13.306,-198.914
0.012,1.136,-0.396,171.509,3.540,-202.271
-0.101,1.306,-0.292,186.890,15.381,-200.256
-0.227,1.364,-0.202,182.861,19.470,-198.364
-0.322,1.368,-0.143,171.021,16.479,-203.003
-0.380,1.350,-0.133,158.325,8.850,-214.355
-0.410,1.306,-0.102,151.733,-1.465,-232.117
-0.395,1.261,-0.023,164.429,-6.592,-254.395
-0.373,1.267,0.072,203.430,-2.502,-273.926
-0.322,1.424,0.217,264.343,9.277,-284.668
-0.272,1.775,0.365,335.022,30.029,-279.785
-0.312,2.194,0.501,395.081,55.481,-246.887
-0.406,2.448,0.581,432.800,80.566,-189.026
-0.548,2.388,0.615,438.049,100.525,-127.197
-0.693,2.200,0.700,413.696,114.380,-86.792
-0.799,1.992,0.807,368.469,118.347,-74.036
-0.887,1.770,0.868,317.627,111.877,-74.951
-0.917,1.505,0.859,279.358,98.999,-80.566
-0.919,1.256,0.840,265.015,87.830,-86.121
-0.923,1.102,0.822,276.062,81.360,-89.294
-0.843,1.092,0.884,307.617,81.116,-86.487
-0.867,1.085,0.962,345.154,81.482,-74.890
-0.824,1.121,1.025,375.671,83.313,-62.439
-0.839,1.179,1.108,388.123,85.327,-40.955
-0.847,1.166,1.160,380.127,86.609,-17.151
-0.848,1.071,1.189,356.079,82.703,6.104
-0.835,0.864,1.178,325.623,76.172,26.855
-0.832,0.587,1.091,294.861,68.176,42.358
-0.791,0.333,1.018,267.822,62.256,47.241
-0.760,0.131,0.963,247.192,59.387,42.419
-0.733,0.004,0.951,231.812,57.983,30.579
-0.721,-0.063,0.980,218.994,55.298,13.855
-0.683,-0.054,1.016,205.444,49.133,-2.808
-0.659,-0.021,1.022,191.162,40.588,-18.005
-0.643,0.013,0.992,172.852,31.677,-29.785
-0.613,0.054,0.948,150.513,23.560,-38.208
-0.590,0.105,0.908,125.671,19.653,-43.884
-0.587,0.155,0.893,95.276,18.066,-46.387
-0.581,0.153,0.865,61.707,14.221,-45.959
-0.556,0.109,0.830,33.020,10.681,-44.067
-0.516,0.059,0.820,17.334,10.071,-42.114
-0.477,0.024,0.831,15.930,12.451,-40.283
-0.436,0.022,0.863,22.644,14.038,-38.269
-0.399,0.017,0.881,30.701,11.108,-36.377
-0.367,0.015,0.902,35.461,4.456,-36.926
-0.336,0.040,0.884,36.072,-4.639,-40.771
-0.304,0.084,0.832,30.212,-14.832,-45.898
-0.268,0.102,0.762,17.822,-23.193,-50.110
-0.242,0.108,0.684,4.822,-26.367,-52.612
-0.222,0.115,0.663,-1.953,-22.156,-53.589
-0.227,0.109,0.691,-3.418,-12.207,-51.758
-0.225,0.106,0.738,-3.601,-3.479,-48.706
-0.212,0.102,0.804,-2.686,2.197,-45.532
-0.209,0.107,0.884,-0.977,3.601,-43.091
-0.192,0.088,0.944,0.000,-1.343,-40.894
-0.190,0.064,0.955,1.282,-10.498,-40.039
-0.184,0.070,0.937,5.005,-19.287,-40.710
-0.187,0.119,0.915,8.179,-23.621,-41.504
-0.204,0.137,0.883,4.333,-23.682,-39.734
-0.204,0.118,0.864,-3.845,-20.142,-36.743

-1.365,1.155,0.731,-350.159,19.653,-9.338
-1.553,1.162,0.784,-354.248,5.798,15.381
-1.682,1.061,0.706,-340.576,-15.137,45.654
-1.732,1.034,0.583,-317.749,-32.837,67.688
-1.737,1.215,0.467,-303.833,-42.053,80.627
-1.763,1.420,0.339,-313.232,-43.518,92.834
-1.809,1.618,0.299,-343.201,-36.682,105.042
-1.840,1.795,0.279,-383.911,-25.208,115.967
-1.821,1.895,0.238,-425.110,-14.771,127.258
-1.787,2.005,0.240,-441.895,-4.578,141.357
-1.708,2.015,0.179,-416.199,2.808,170.227
-1.573,1.913,-0.007,-354.858,7.690,213.440
-1.420,1.833,-0.190,-293.640,14.771,247.314
-1.268,1.891,-0.309,-263.977,24.963,261.353
-1.114,1.968,-0.410,-260.437,35.522,265.747
-0.932,2.023,-0.526,-261.047,46.570,268.921
-0.728,2.006,-0.706,-257.629,61.340,272.705
-0.573,1.948,-0.788,-251.709,83.618,273.560
-0.423,1.890,-0.811,-245.972,110.168,271.790
-0.362,1.700,-0.720,-243.835,135.681,269.409
-0.403,1.501,-0.504,-226.501,154.114,265.381
-0.454,1.358,-0.380,-183.350,156.616,266.052
-0.558,1.294,-0.372,-131.897,141.846,265.686
-0.272,1.531,-0.479,-116.699,108.887,245.972
-0.180,1.656,-0.736,-113.770,98.694,221.619
-0.033,1.583,-0.850,-111.267,97.961,219.482
0.011,1.427,-0.870,-110.352,110.413,214.233
0.077,1.308,-0.799,-112.732,123.901,202.087
0.100,1.202,-0.642,-111.877,133.972,186.768
0.124,1.033,-0.435,-94.421,136.230,177.734
0.189,0.834,-0.246,-53.467,126.892,174.133
0.253,0.746,-0.177,-5.798,107.605,167.236
0.397,0.942,-0.181,27.649,81.848,150.208
0.557,1.106,-0.228,32.104,53.711,130.310
0.695,1.076,-0.277,8.606,30.701,116.455
0.779,0.944,-0.290,-24.170,15.686,100.830
0.871,0.808,-0.317,-51.697,6.226,83.130
0.903,0.688,-0.353,-70.801,2.930,65.918
0.868,0.624,-0.312,-76.721,4.028,48.950
0.803,0.543,-0.287,-62.073,3.052,39.795
0.738,0.511,-0.310,-33.020,0.061,37.048
0.683,0.516,-0.359,-6.775,-1.709,31.067
0.621,0.525,-0.380,8.057,-1.587,19.592
0.543,0.503,-0.351,17.151,-0.671,7.141
0.477,0.469,-0.303,24.414,-0.183,-3.540
0.407,0.400,-0.262,24.902,-1.953,-14.404
0.350,0.337,-0.214,20.447,-5.554,-27.649
0.275,0.325,-0.213,14.343,-9.949,-43.213
0.189,0.327,-0.234,11.047,-14.709,-58.960
0.127,0.336,-0.280,15.076,-18.188,-74.890
0.062,0.324,-0.317,23.254,-19.226,-90.942
-0.021,0.279,-0.306,35.095,-17.517,-108.215
-0.126,0.239,-0.267,57.922,-16.785,-127.197
-0.190,0.213,-0.268,98.816,-19.897,-146.484
-0.193,0.216,-0.298,151.917,-21.973,-164.856
-0.181,0.326,-0.307,205.200,-17.761,-183.472
-0.190,0.498,-0.296,250.793,-7.385,-199.524
-0.262,0.643,-0.283,292.236,6.531,-208.923
-0.272,0.767,-0.245,339.600,25.879,-216.919
-0.298,0.860,-0.123,389.404,52.917,-224.426
-0.346,0.948,0.121,438.965,83.496,-229.004
-0.407,1.003,0.384,487.549,110.596,-229.187
-0.448,1.048,0.647,525.452,130.920,-226.929
-0.476,1.154,0.890,544.250,142.578,-229.675
-0.500,1.277,1.114,540.588,143.921,-235.535
-0.531,1.420,1.227,511.292,136.230,-239.685
-0.534,1.575,1.297,455.994,123.779,-243.774
-0.567,1.745,1.338,382.446,110.229,-246.216
-0.616,1.788,1.286,301.331,98.572,-237.915
-0.646,1.754,1.231,225.830,91.858,-220.825
-0.707,1.617,1.169,168.396,92.102,-204.041
-0.746,1.418,1.133,132.812,94.421,-187.439
-0.778,1.240,1.096,125.183,96.680,-170.349
-0.783,1.141,1.086,143.738,97.229,-156.067
-0.781,1.089,1.108,181.091,97.534,-138.611
-0.767,1.037,1.136,223.450,100.586,-114.868
-0.816,0.971,1.188,254.883,106.079,-89.722
-0.830,0.935,1.234,267.212,108.948,-69.092
-0.840,0.861,1.229,251.770,107.056,-52.673
-0.809,0.785,1.216,213.013,102.417,-45.776
-0.871,0.695,1.201,163.330,100.342,-44.983
-0.847,0.611,1.141,120.789,96.069,-54.626
-0.837,0.561,1.084,92.346,87.952,-64.697
-0.809,0.522,1.028,79.224,81.360,-67.017
-0.777,0.513,0.986,82.642,77.576,-65.674
-0.758,0.510,0.960,95.154,76.050,-59.814
-0.763,0.493,0.943,105.652,74.585,-50.842
-0.762,0.456,0.934,107.727,70.313,-42.847
-0.748,0.411,0.935,101.563,63.293,-38.513
-0.710,0.382,0.944,91.064,55.969,-38.147
-0.681,0.360,0.942,79.590,50.293,-40.222
-0.648,0.327,0.948,70.251,46.387,-41.443
-0.633,0.305,0.949,63.599,42.419,-40.222
-0.616,0.272,0.989,60.120,37.659,-37.109
-0.606,0.202,1.010,60.059,31.067,-33.386
-0.586,0.146,1.017,60.303,20.752,-31.311
-0.545,0.100,1.004,61.523,9.155,-33.630
-0.511,0.094,0.984,61.707,-0.183,-39.734
-0.476,0.124,0.961,58.716,-7.446,-46.387
-0.441,0.156,0.955,52.551,-14.465,-51.025
-0.408,0.165,0.939,44.739,-20.813,-53.101
-0.372,0.164,0.913,36.133,-26.794,-53.955
-0.326,0.164,0.890,28.809,-30.518,-54.138
-0.284,0.165,0.851,23.437,-31.677,-54.688
-0.255,0.183,0.839,19.348,-30.457,-54.932
-0.243,0.188,0.833,16.113,-27.344,-54.199
-0.246,0.186,0.829,13.611,-24.963,-51.331
-0.246,0.186,0.833,14.893,-23.926,-48.157
-0.250,0.216,0.874,18.982,-23.437,-45.105
-0.250,0.232,0.880,21.057,-24.536,-40.344
-0.230,0.235,0.894,20.569,-27.588,-35.706
-0.213,0.227,0.904,20.569,-30.640,-32.471
-0.192,0.209,0.897,21.545,-33.447,-28.870
-0.167,0.184,0.874,21.606,-36.011,-25.940
-0.156,0.175,0.860,20.203,-36.804,-24.780
-0.159,0.155,0.825,15.869,-37.170,-24.231
-0.156,0.130,0.797,7.629,-37.354,-25.208
-0.156,0.116,0.801,-0.488,-34.424,-29.419
-0.187,0.122,0.825,-5.920,-28.381,-34.546

-1.485,0.982,0.608,-281.433,-17.151,29.724
-1.583,1.224,0.636,-294.128,-23.437,43.579
-1.696,1.296,0.634,-305.542,-31.250,73.914
-1.757,1.268,0.663,-307.068,-37.781,105.957
-1.797,1.160,0.688,-293.396,-43.091,129.395
-1.810,1.070,0.671,-276.306,-51.147,145.325
-1.760,1.164,0.661,-264.099,-60.486,150.574
-1.755,1.345,0.609,-259.583,-66.528,150.330
-1.694,1.532,0.542,-264.343,-66.284,153.625
-1.640,1.831,0.522,-269.226,-59.509,159.302
-1.550,2.133,0.510,-280.457,-48.523,170.227
-1.458,2.181,0.460,-298.035,-38.025,190.186
-1.407,2.129,0.415,-299.377,-23.743,211.426
-1.303,2.110,0.386,-271.362,-8.667,229.370
-1.177,2.067,0.294,-226.013,2.930,247.620
-1.062,1.997,0.224,-182.373,15.381,264.832
-0.944,1.920,0.147,-156.433,27.588,274.109
-0.826,1.862,0.060,-155.823,37.842,271.423
-0.689,1.961,0.050,-167.664,48.950,260.071
-0.580,2.007,0.047,-175.171,62.927,252.319
-0.476,1.906,0.021,-166.809,76.843,254.517
-0.382,1.760,0.023,-140.503,91.370,259.583
-0.316,1.619,0.079,-106.079,106.079,260.803
-0.256,1.466,0.146,-77.393,113.831,255.920
-0.194,1.438,0.332,-55.786,110.107,244.568
-0.135,1.323,0.352,-34.607,91.858,237.305
-0.021,1.134,0.254,-13.733,64.941,230.713
0.138,1.019,0.193,-4.150,42.297,210.083
0.284,0.976,0.127,-4.333,26.184,182.373
0.456,0.923,0.068,-7.263,14.587,156.738
0.624,0.920,0.109,-10.315,7.751,134.399
0.722,0.994,0.203,-12.329,1.160,117.249
0.794,0.967,0.193,-3.235,-11.597,111.511
0.862,0.842,0.029,17.700,-29.602,109.558
0.937,0.808,-0.106,35.461,-40.955,96.436
0.966,0.859,-0.206,39.612,-44.617,74.524
0.968,0.873,-0.288,34.363,-44.739,54.626
0.930,0.819,-0.340,22.705,-41.626,37.659
0.866,0.722,-0.356,7.507,-34.546,20.020
0.799,0.627,-0.356,-5.432,-26.367,1.709
0.725,0.578,-0.322,-12.451,-18.372,-15.198
0.610,0.568,-0.297,-10.437,-12.268,-29.358
0.507,0.572,-0.315,-3.296,-7.874,-39.551
0.390,0.522,-0.322,7.446,-5.127,-48.218
0.269,0.451,-0.334,20.996,-2.930,-57.983
0.183,0.436,-0.352,37.415,-0.610,-70.679
0.119,0.481,-0.373,53.467,3.235,-84.778
0.072,0.562,-0.394,62.317,9.766,-96.436
-0.016,0.582,-0.381,56.519,18.921,-106.750
-0.119,0.579,-0.303,39.795,28.687,-119.690
-0.237,0.590,-0.183,23.254,34.058,-137.634
-0.337,0.595,-0.053,16.663,32.837,-157.715
-0.444,0.588,0.069,28.503,27.649,-172.119
-0.523,0.577,0.135,63.843,24.597,-178.650
-0.567,0.644,0.178,116.516,27.344,-181.885
-0.592,0.773,0.216,173.889,36.987,-181.763
-0.662,0.914,0.296,222.900,52.795,-177.673
-0.738,1.045,0.422,255.127,69.214,-173.889
-0.816,1.179,0.602,269.043,80.322,-173.584
-0.886,1.359,0.819,259.705,83.313,-173.767
-0.985,1.419,0.965,223.938,74.585,-171.082
-1.066,1.340,1.026,171.387,57.739,-169.434
-1.108,1.167,1.002,120.667,37.109,-174.683
-1.111,1.014,0.926,86.121,17.761,-187.866
-1.079,0.932,0.822,82.703,4.700,-202.026
-1.022,0.898,0.727,112.000,-0.122,-208.557
-0.959,0.949,0.687,163.269,2.930,-205.139
-0.920,1.145,0.690,221.985,13.367,-189.453
-0.956,1.335,0.739,262.695,30.029,-159.851
-1.027,1.389,0.806,277.039,44.739,-125.610
-1.085,1.288,0.840,268.555,54.565,-91.370
-1.119,1.088,0.911,249.390,61.340,-64.880
-1.123,0.798,0.975,233.276,67.261,-44.983
-1.130,0.515,1.020,225.342,73.181,-29.419
-1.107,0.281,1.057,230.957,76.660,-20.508
-1.084,0.144,1.067,252.747,78.308,-13.916
-1.030,0.087,1.050,292.175,79.956,-4.395
-0.980,0.144,1.043,333.252,83.008,6.165
-0.957,0.254,1.052,354.492,86.609,15.381
-0.941,0.327,1.039,348.083,85.876,23.132
-0.911,0.342,0.984,315.552,80.933,25.146
-0.891,0.292,0.917,262.024,75.867,19.775
-0.875,0.214,0.871,199.158,69.580,6.287
-0.844,0.153,0.835,142.151,62.378,-13.611
-0.797,0.127,0.808,102.661,57.739,-33.875
-0.769,0.121,0.785,83.679,56.458,-47.058
-0.747,0.137,0.760,84.229,55.664,-51.208
-0.719,0.194,0.789,99.609,55.359,-48.462
-0.682,0.265,0.835,118.774,55.542,-40.588
-0.670,0.350,0.862,127.502,52.856,-29.053
-0.670,0.385,0.869,119.080,46.753,-16.785
-0.669,0.330,0.844,97.046,38.574,-7.446
-0.649,0.246,0.780,71.472,30.701,-4.456
-0.622,0.146,0.732,49.072,27.039,-6.165
-0.607,0.055,0.707,32.837,28.503,-13.123
-0.593,0.012,0.717,22.705,29.907,-23.254
-0.572,0.012,0.732,18.372,29.236,-33.875
-0.558,0.050,0.774,19.470,26.428,-41.565
-0.543,0.106,0.811,27.039,21.729,-42.725
-0.531,0.151,0.820,37.537,17.334,-38.086
-0.522,0.173,0.814,43.762,13.123,-30.945
-0.504,0.191,0.830,44.373,10.193,-24.841
-0.492,0.185,0.828,39.063,8.179,-20.325
-0.477,0.163,0.823,26.611,4.944,-17.822
-0.448,0.122,0.805,11.902,2.502,-18.005
-0.418,0.061,0.794,-0.732,1.465,-19.592
-0.393,-0.001,0.784,-9.521,1.709,-23.437
-0.382,-0.018,0.821,-12.512,2.502,-29.602
-0.369,-0.013,0.850,-5.615,2.014,-32.898
-0.369,0.003,0.833,8.301,-1.038,-31.372
-0.351,0.033,0.844,25.818,-3.540,-27.039
-0.353,0.056,0.850,39.917,-3.540,-23.132
-0.353,0.076,0.853,44.128,-4.150,-19.714
-0.331,0.083,0.862,39.185,-4.639,-18.555
-0.328,0.103,0.872,28.076,-2.991,-19.775
-0.329,0.123,0.886,12.146,-0.610,-20.508
-0.322,0.112,0.895,-4.333,1.038,-20.386
-0.304,0.086,0.895,-14.526,2.502,-19.287
-0.294,0.069,0.913,-15.015,4.456,-16.602

-1.134,1.027,0.884,-268.433,30.823,-41.992
-1.297,1.088,0.887,-265.808,11.963,-8.423
-1.438,1.044,0.835,-282.410,-10.315,19.897
-1.583,0.989,0.781,-316.650,-30.334,29.602
-1.725,1.006,0.728,-354.797,-40.100,16.113
-1.814,1.151,0.648,-382.202,-45.105,-3.296
-1.837,1.421,0.508,-390.442,-51.331,-12.512
-1.766,1.857,0.429,-375.427,-46.265,1.160
-1.781,2.107,0.425,-343.628,-34.241,47.913
-1.770,2.042,0.447,-296.753,-18.616,111.389
-1.801,1.946,0.529,-238.403,0.366,168.701
-1.803,1.917,0.667,-190.979,10.925,208.008
-1.763,1.968,0.752,-175.476,5.737,226.379
-1.668,2.100,0.775,-190.491,-6.836,225.830
-1.462,2.238,0.685,-223.145,-21.667,220.581
-1.276,2.238,0.559,-254.333,-30.884,221.375
-1.076,2.260,0.445,-264.832,-28.931,226.807
-0.864,2.360,0.345,-257.935,-20.508,240.234
-0.706,2.302,0.267,-243.713,-8.667,260.986
-0.581,2.177,0.201,-219.055,5.249,280.029
-0.469,2.069,0.149,-186.096,19.287,294.373
-0.395,1.967,0.065,-151.855,32.837,304.871
-0.344,1.916,0.000,-120.483,44.800,309.021
-0.267,1.978,-0.044,-92.712,55.115,310.547
-0.233,1.954,-0.053,-72.876,65.125,314.697
-0.212,1.870,-0.042,-65.674,72.754,317.139
-0.177,1.742,0.018,-67.627,75.073,310.730
-0.131,1.581,0.084,-68.237,72.449,298.706
-0.079,1.365,0.107,-61.951,62.439,285.400
0.009,1.214,0.114,-50.537,46.021,266.968
0.147,1.194,0.037,-38.330,27.710,246.216
0.313,1.181,-0.073,-34.790,11.780,227.966
0.463,1.125,-0.120,-40.588,3.418,209.045
0.598,1.128,-0.098,-44.312,3.174,191.284
0.715,1.123,-0.037,-46.692,3.906,177.856
0.721,1.023,-0.000,-47.974,0.305,167.969
0.733,0.910,-0.039,-44.434,-7.874,156.372
0.770,0.864,-0.123,-41.809,-18.311,135.071
0.805,0.817,-0.212,-44.128,-25.879,110.291
0.819,0.737,-0.282,-46.997,-27.771,87.036
0.822,0.699,-0.314,-46.265,-23.743,66.589
0.816,0.644,-0.330,-44.556,-16.357,49.438
0.781,0.560,-0.316,-45.227,-6.775,34.302
0.731,0.512,-0.275,-47.729,2.075,17.700
0.669,0.531,-0.181,-52.368,8.362,0.000
0.626,0.528,-0.093,-55.603,8.606,-10.742
0.521,0.446,-0.051,-53.528,7.935,-13.611
0.425,0.330,-0.064,-40.894,4.272,-15.198
0.377,0.230,-0.120,-23.132,-0.793,-23.865
0.320,0.190,-0.164,-9.338,-1.709,-42.358
0.267,0.204,-0.190,0.977,0.549,-63.782
0.208,0.238,-0.229,15.076,5.127,-82.947
0.133,0.269,-0.259,33.936,11.780,-99.182
0.068,0.292,-0.272,56.458,18.860,-114.319
0.015,0.349,-0.252,79.346,25.269,-130.188
-0.041,0.453,-0.205,97.473,31.128,-145.630
-0.126,0.558,-0.141,108.887,35.034,-157.532
-0.191,0.617,-0.077,117.249,37.659,-165.161
-0.282,0.601,-0.020,127.869,40.100,-170.593
-0.336,0.559,0.026,147.827,43.274,-177.612
-0.386,0.540,0.051,180.115,48.035,-190.735
-0.402,0.601,0.124,227.600,56.519,-209.534
-0.419,0.719,0.281,288.879,69.336,-227.478
-0.428,0.912,0.478,352.722,83.069,-238.770
-0.478,1.131,0.706,404.053,94.055,-238.831
-0.531,1.354,0.953,439.514,101.135,-228.088
-0.611,1.526,1.188,457.947,107.300,-207.703
-0.727,1.563,1.332,453.613,111.755,-179.016
-0.816,1.493,1.406,431.274,111.511,-152.161
-0.863,1.341,1.409,401.611,110.229,-134.888
-0.911,1.229,1.372,368.713,108.521,-128.845
-0.918,1.143,1.347,341.553,108.765,-129.639
-0.947,1.052,1.360,319.824,109.436,-129.822
-0.961,0.995,1.378,302.490,107.178,-130.066
-0.954,0.937,1.362,285.522,100.525,-128.601
-0.934,0.896,1.337,266.418,93.628,-129.822
-0.926,0.876,1.310,246.521,89.478,-131.775
-0.935,0.880,1.290,224.426,86.548,-130.493
-0.946,0.848,1.250,201.477,83.313,-125.061
-0.946,0.815,1.199,178.345,80.505,-116.638
-0.952,0.753,1.136,153.687,77.820,-105.530
-0.943,0.677,1.065,131.592,74.097,-91.370
-0.903,0.616,1.018,118.652,73.181,-75.195
-0.886,0.521,1.000,114.136,76.965,-56.580
-0.885,0.399,0.981,114.929,80.383,-38.269
-0.872,0.302,0.991,119.202,79.407,-23.682
-0.844,0.224,0.978,127.136,76.355,-13.611
-0.819,0.164,0.961,132.812,72.815,-6.470
-0.787,0.118,0.943,130.981,67.749,-3.418
-0.762,0.088,0.910,120.911,62.866,-3.357
-0.751,0.072,0.886,104.553,59.631,-5.249
-0.740,0.051,0.848,84.717,56.396,-7.874
-0.726,0.041,0.813,67.749,53.833,-10.620
-0.717,0.036,0.791,57.068,54.749,-13.000
-0.697,0.036,0.820,49.377,56.030,-14.160
-0.656,0.017,0.889,43.945,54.443,-14.832
-0.625,-0.021,0.956,44.312,49.377,-14.954
-0.592,-0.041,0.983,52.795,41.199,-14.160
-0.567,-0.018,0.993,65.002,32.104,-13.672
-0.547,-0.007,0.968,71.838,23.499,-13.855
-0.521,0.001,0.906,67.688,14.099,-15.747
-0.479,0.008,0.847,55.176,6.409,-20.264
-0.444,-0.002,0.784,38.635,2.869,-26.611
-0.401,0.005,0.741,22.522,1.709,-33.508
-0.362,0.028,0.733,12.390,4.272,-39.429
-0.351,0.073,0.765,8.728,10.376,-41.443
-0.341,0.111,0.840,11.719,15.747,-37.415
-0.343,0.114,0.940,19.043,17.212,-29.480
-0.350,0.072,1.006,28.625,11.475,-20.691
-0.339,0.030,0.996,41.992,0.122,-14.526
-0.319,0.029,0.923,58.899,-9.949,-11.414
-0.301,0.049,0.858,70.129,-14.771,-11.719
-0.282,0.062,0.801,68.481,-14.771,-13.855
-0.271,0.061,0.771,56.091,-10.376,-16.724
-0.259,0.041,0.769,39.490,-2.808,-19.714
-0.243,0.028,0.807,23.437,5.737,-21.729
-0.242,0.040,0.879,11.108,13.062,-22.522
-0.249,0.046,0.937,1.587,15.442,-21.545
-0.244,0.038,0.995,-4.761,11.536,-19.348

-1.275,0.456,0.921,-263.550,-3.601,20.935
-1.424,0.496,0.927,-303.284,-12.695,16.113
-1.608,0.563,0.929,-334.534,-22.461,13.855
-1.737,0.707,0.932,-362.061,-35.767,15.564
-1.830,0.892,0.914,-399.719,-51.208,21.118
-1.906,1.085,0.944,-439.941,-60.669,29.480
-1.959,1.317,0.935,-469.055,-63.538,44.800
-1.994,1.502,1.000,-486.084,-63.232,69.214
-1.948,1.623,1.091,-481.506,-63.965,100.159
-1.882,1.684,1.122,-458.252,-66.528,136.719
-1.822,1.687,1.081,-420.959,-70.129,169.495
-1.739,1.802,1.027,-375.549,-75.806,192.810
-1.666,2.017,0.924,-333.557,-84.961,212.219
-1.513,2.185,0.772,-305.542,-96.436,229.980
-1.344,2.214,0.558,-298.706,-107.178,246.826
-1.120,2.175,0.368,-303.528,-107.971,256.287
-0.917,2.066,0.220,-310.303,-98.511,257.629
-0.720,1.983,0.091,-310.181,-82.031,253.601
-0.559,1.935,-0.058,-304.749,-60.547,245.728
-0.400,1.971,-0.120,-292.114,-35.828,237.183
-0.294,2.089,-0.125,-272.156,-11.963,234.802
-0.230,2.136,-0.156,-239.258,5.066,240.662
-0.156,2.089,-0.199,-196.167,15.625,248.474
-0.058,2.065,-0.250,-164.612,24.109,254.028
0.004,2.027,-0.291,-157.776,32.043,250.244
0.094,1.894,-0.270,-164.612,38.757,239.868
0.177,1.692,-0.278,-169.006,46.021,227.478
0.266,1.490,-0.267,-168.335,53.345,214.600
0.341,1.322,-0.216,-161.438,59.265,200.745
0.418,1.170,-0.139,-140.137,62.927,189.880
0.503,0.986,-0.103,-105.286,62.378,183.899
0.588,0.781,-0.087,-68.970,57.373,176.392
0.683,0.635,-0.072,-38.757,48.828,162.476
0.779,0.635,-0.062,-22.644,36.804,143.127
0.838,0.615,-0.118,-27.344,20.508,124.084
0.893,0.560,-0.194,-43.762,4.944,102.234
0.948,0.540,-0.267,-58.838,-3.052,74.097
0.988,0.538,-0.314,-63.904,-3.052,45.959
1.007,0.517,-0.321,-55.725,4.395,23.804
0.908,0.484,-0.085,-38.879,16.785,6.714
0.860,0.474,-0.063,-31.189,11.902,-8.362
0.852,0.424,-0.042,-22.278,12.939,-25.330
0.755,0.450,-0.070,9.949,20.325,-20.325
0.657,0.373,-0.095,45.471,27.344,-8.850
0.545,0.307,-0.117,66.833,35.095,-8.362
0.429,0.314,-0.105,67.749,38.513,-25.757
0.327,0.395,-0.089,56.763,37.170,-52.917
0.217,0.460,-0.102,48.279,33.386,-77.576
0.120,0.477,-0.126,49.438,29.907,-96.008
0.037,0.454,-0.148,62.561,29.419,-111.755
-0.029,0.412,-0.151,86.182,31.738,-127.991
-0.077,0.411,-0.117,117.188,35.828,-142.639
-0.114,0.493,-0.071,154.419,39.734,-155.884
-0.146,0.641,-0.033,195.129,42.297,-165.466
-0.145,0.767,-0.023,234.985,45.593,-169.250
-0.157,0.852,0.015,272.156,55.603,-167.053
-0.218,0.907,0.111,307.251,74.341,-162.292
-0.377,0.933,0.236,335.144,95.764,-158.508
-0.550,0.959,0.387,351.501,112.305,-155.945
-0.676,0.976,0.545,354.797,119.263,-158.264
-0.780,0.943,0.645,345.825,114.990,-164.917
-0.804,0.942,0.712,329.468,101.501,-177.979
-0.775,0.986,0.773,314.697,85.449,-197.083
-0.745,1.117,0.843,305.176,72.571,-215.576
-0.701,1.286,0.915,299.561,62.134,-224.915
-0.694,1.482,0.969,292.419,52.368,-219.666
-0.706,1.629,0.993,279.297,46.631,-196.899
-0.740,1.653,0.951,259.521,50.842,-161.560
-0.819,1.539,0.931,239.624,66.467,-121.216
-0.904,1.272,0.961,225.525,87.402,-81.299
-0.938,0.994,1.025,221.008,104.553,-52.429
-1.000,0.748,1.072,228.210,115.967,-35.950
-1.022,0.580,1.109,243.164,118.591,-29.846
-1.011,0.512,1.148,263.550,114.136,-31.555
-0.993,0.501,1.159,283.386,106.323,-36.560
-0.956,0.538,1.168,289.856,95.581,-41.992
-0.935,0.593,1.118,279.358,84.167,-45.959
-0.936,0.613,1.042,251.709,76.294,-44.312
-0.944,0.562,0.954,211.243,71.716,-38.757
-0.945,0.444,0.920,167.969,72.449,-32.104
-0.949,0.267,0.908,134.460,78.613,-22.278
-0.945,0.098,0.923,115.784,84.778,-14.099
-0.924,-0.026,0.933,111.938,88.562,-10.376
-0.900,-0.085,0.939,116.638,89.844,-11.292
-0.871,-0.070,0.970,121.704,88.013,-16.724
-0.844,-0.011,0.989,121.338,82.458,-24.902
-0.813,0.064,0.977,112.488,73.181,-32.959
-0.778,0.132,0.956,96.619,63.416,-40.344
-0.778,0.193,0.929,79.895,55.664,-44.373
-0.771,0.228,0.899,67.932,51.819,-43.030
-0.761,0.230,0.868,61.340,49.988,-37.048
-0.749,0.198,0.844,58.228,49.927,-28.748
-0.737,0.163,0.834,57.251,51.086,-20.630
-0.705,0.136,0.856,57.190,51.514,-14.343
-0.684,0.111,0.899,57.983,52.063,-10.437
-0.653,0.101,0.945,58.594,50.110,-8.362
-0.618,0.103,0.993,58.838,44.800,-7.935
-0.578,0.099,1.004,58.167,37.292,-7.568
-0.549,0.100,1.009,57.251,28.992,-7.507
-0.515,0.084,0.984,56.335,21.301,-6.714
-0.485,0.047,0.936,53.833,14.160,-5.676
-0.449,0.018,0.872,49.255,9.216,-6.470
-0.422,0.009,0.820,41.809,6.592,-9.216
-0.395,0.008,0.806,31.372,7.629,-13.062
-0.379,0.012,0.838,19.348,11.169,-16.968
-0.364,0.011,0.880,6.775,13.489,-19.592
-0.360,0.010,0.941,-3.845,11.841,-20.996
-0.363,-0.006,0.996,-7.263,6.226,-19.958
-0.358,-0.014,0.995,0.427,-3.174,-15.381
-0.312,-0.022,0.938,15.259,-11.841,-10.010
-0.305,-0.026,0.880,28.748,-15.625,-5.981
-0.277,-0.029,0.846,36.682,-15.808,-4.578
-0.266,-0.018,0.815,37.354,-13.123,-5.737
-0.250,0.000,0.812,30.396,-8.118,-8.728
-0.244,0.005,0.819,18.127,-2.258,-12.756
-0.242,0.018,0.869,3.418,2.075,-17.517
-0.253,0.020,0.908,-9.827,3.235,-21.973
-0.246,0.035,0.953,-19.653,0.610,-25.085
-0.250,0.046,0.983,-23.193,-3.113,-26.123

-1.177,0.510,0.969,-120.178,-25.818,9.949
-1.273,0.477,0.995,-164.734,-32.166,13.062
-1.402,0.420,1.060,-220.215,-36.682,7.446
-1.505,0.361,1.143,-266.235,-40.771,-3.845
-1.571,0.370,1.233,-287.292,-46.265,-15.320
-1.599,0.545,1.357,-279.175,-53.589,-16.541
-1.666,0.765,1.389,-258.911,-65.308,0.305
-1.741,0.904,1.413,-245.483,-79.895,32.227
-1.790,0.894,1.411,-251.282,-96.130,62.317
-1.840,0.839,1.423,-271.790,-106.812,79.590
-1.885,0.879,1.475,-296.631,-112.488,81.726
-1.903,1.006,1.472,-322.388,-122.437,77.759
-1.867,1.141,1.365,-350.220,-135.925,75.073
-1.801,1.307,1.238,-372.620,-145.813,76.538
-1.682,1.510,1.099,-394.531,-151.855,84.106
-1.543,1.636,0.946,-419.678,-153.625,98.938
-1.418,1.672,0.818,-433.350,-147.095,120.117
-1.260,1.695,0.696,-422.607,-129.700,146.484
-1.142,1.766,0.605,-393.555,-106.201,174.866
-1.007,1.843,0.484,-355.408,-79.895,206.177
-0.873,1.840,0.316,-325.317,-55.420,232.666
-0.747,1.750,0.167,-308.350,-31.860,244.812
-0.644,1.619,0.022,-298.279,-9.216,244.568
-0.556,1.514,-0.013,-285.706,11.780,238.281
-0.498,1.439,0.011,-259.766,30.884,234.192
-0.440,1.348,0.019,-218.811,44.128,238.159
-0.399,1.284,0.009,-180.847,50.781,240.051
-0.338,1.332,-0.046,-155.090,50.964,229.370
-0.214,1.420,-0.196,-139.954,46.387,211.365
-0.054,1.513,-0.293,-139.893,42.297,193.542
0.117,1.533,-0.366,-153.076,42.297,179.626
0.280,1.381,-0.373,-167.908,45.288,171.448
0.441,1.199,-0.298,-167.053,48.706,163.086
0.601,0.942,-0.247,-139.404,48.767,158.630
0.754,0.644,-0.233,-91.797,47.058,154.297
0.909,0.472,-0.201,-41.626,45.776,136.841
0.991,0.512,-0.025,-3.662,43.579,110.596
1.169,0.568,-0.117,-5.920,25.635,86.182
1.247,0.459,-0.225,-33.997,14.404,54.993
1.233,0.426,-0.296,-54.443,12.512,35.339
1.211,0.397,-0.309,-60.486,11.292,13.916
1.189,0.416,-0.290,-52.612,11.536,-2.441
1.101,0.433,-0.222,-36.255,16.113,-7.629
0.968,0.401,-0.209,-4.883,20.447,-4.700
0.881,0.318,-0.216,29.419,23.254,-3.967
0.776,0.250,-0.210,55.176,28.320,-14.771
0.659,0.249,-0.167,74.402,34.241,-33.386
0.543,0.272,-0.134,92.529,37.476,-51.941
0.444,0.317,-0.128,109.314,37.354,-67.627
0.331,0.382,-0.123,121.399,34.851,-82.642
0.219,0.474,-0.127,131.042,29.602,-97.961
0.139,0.614,-0.141,141.968,20.447,-111.023
0.093,0.728,-0.194,151.367,10.742,-119.385
0.007,0.776,-0.245,154.907,7.996,-122.742
-0.045,0.783,-0.251,154.480,13.611,-128.052
-0.134,0.729,-0.172,155.334,24.597,-134.644
-0.235,0.639,-0.054,166.809,34.912,-141.113
-0.318,0.555,0.063,199.036,41.382,-149.597
-0.344,0.526,0.194,248.779,46.143,-157.837
-0.394,0.586,0.336,304.749,50.537,-168.457
-0.482,0.754,0.492,356.995,54.504,-179.932
-0.572,0.987,0.649,394.287,57.373,-186.584
-0.681,1.239,0.796,407.898,56.519,-185.791
-0.739,1.432,0.855,398.499,50.720,-181.702
-0.776,1.522,0.846,373.535,43.152,-175.659
-0.790,1.517,0.811,338.623,38.635,-169.128
-0.805,1.453,0.820,303.162,38.818,-167.053
-0.815,1.379,0.907,278.015,44.128,-169.800
-0.846,1.262,0.994,262.695,51.697,-164.124
-0.894,1.137,1.082,252.502,61.890,-147.461
-0.960,0.996,1.154,248.901,75.256,-125.793
-0.990,0.886,1.224,250.061,86.121,-104.248
-1.024,0.822,1.256,253.967,92.529,-82.642
-1.045,0.814,1.281,259.766,94.543,-63.965
-1.075,0.841,1.310,260.986,92.407,-47.729
-1.095,0.838,1.309,252.014,85.266,-33.203
-1.110,0.768,1.248,231.323,74.402,-22.949
-1.117,0.650,1.133,199.829,63.477,-19.043
-1.105,0.530,1.030,165.405,56.519,-22.949
-1.104,0.424,0.971,139.832,55.481,-30.518
-1.096,0.327,0.952,127.808,57.922,-32.410
-1.084,0.235,0.958,130.615,63.171,-27.344
-1.065,0.170,0.967,140.442,68.420,-20.264
-1.056,0.147,0.950,145.203,70.862,-13.367
-1.036,0.163,0.969,137.268,69.336,-8.179
-1.030,0.169,1.007,117.004,63.171,-5.066
-1.019,0.131,1.001,89.661,53.040,-4.272
-0.983,0.087,0.963,65.063,41.687,-6.409
-0.949,0.059,0.909,50.171,34.790,-10.071
-0.917,0.043,0.848,45.654,31.982,-11.780
-0.883,0.034,0.786,47.546,31.311,-10.742
-0.847,0.008,0.714,52.185,32.410,-7.751
-0.802,-0.016,0.672,56.946,35.156,-5.005
-0.774,-0.028,0.686,59.692,39.368,-3.906
-0.747,-0.032,0.757,59.998,42.297,-4.150
-0.719,-0.031,0.821,57.983,40.588,-4.517
-0.669,-0.023,0.876,56.702,35.278,-3.662
-0.631,-0.035,0.908,58.533,29.907,-1.282
-0.593,-0.046,0.915,60.730,23.010,2.563
-0.566,-0.031,0.948,60.730,15.747,5.066
-0.544,-0.043,0.944,57.190,9.155,6.653
-0.534,-0.066,0.907,47.852,1.465,4.944
-0.501,-0.096,0.866,39.185,-4.456,-0.183
-0.468,-0.117,0.838,35.217,-6.531,-7.202
-0.447,-0.121,0.820,36.682,-6.409,-15.076
-0.425,-0.104,0.812,42.786,-5.432,-22.400
-0.416,-0.056,0.802,50.293,-4.333,-28.137
-0.400,0.008,0.830,56.763,-2.930,-31.799
-0.416,0.068,0.845,58.228,-2.441,-32.471
-0.420,0.102,0.842,52.246,-3.967,-31.860
-0.423,0.127,0.862,41.504,-5.493,-32.349
-0.424,0.134,0.887,29.541,-6.897,-33.325
-0.411,0.126,0.881,17.761,-9.888,-33.813
-0.383,0.117,0.854,8.789,-13.855,-34.729
-0.371,0.111,0.797,4.883,-16.113,-35.645
-0.352,0.114,0.757,5.920,-15.625,-35.645
-0.342,0.102,0.723,8.972,-12.451,-34.302
-0.336,0.085,0.715,12.207,-7.263,-31.555
-0.338,0.074,0.744,14.648,1.099,-29.297

-1.151,1.221,0.814,-254.456,40.894,32.593
-1.198,1.245,0.818,-243.103,20.996,55.542
-1.224,1.301,0.761,-228.027,6.775,73.669
-1.250,1.412,0.730,-218.201,1.404,86.121
-1.296,1.568,0.692,-215.210,3.784,96.313
-1.329,1.719,0.683,-217.346,9.705,110.352
-1.294,1.858,0.668,-222.107,13.245,125.366
-1.239,1.933,0.652,-228.943,18.738,143.677
-1.225,1.992,0.750,-230.530,27.039,163.269
-1.221,2.011,0.846,-219.788,28.259,183.228
-1.195,1.948,0.865,-199.707,17.883,206.726
-1.126,1.917,0.799,-174.683,0.854,226.074
-1.034,1.924,0.652,-156.311,-15.381,237.122
-0.929,1.954,0.482,-152.466,-27.771,242.859
-0.781,1.964,0.288,-162.903,-32.837,243.103
-0.666,1.949,0.143,-183.533,-28.137,240.784
-0.573,1.902,0.060,-199.768,-14.648,235.962
-0.501,1.864,0.028,-202.454,1.099,233.093
-0.435,1.870,0.037,-193.359,16.174,234.192
-0.399,1.815,0.063,-178.772,24.902,239.258
-0.348,1.679,0.061,-160.156,24.597,246.277
-0.283,1.476,0.016,-136.108,21.118,252.380
-0.217,1.344,-0.028,-112.183,17.151,254.395
-0.135,1.261,-0.033,-102.478,12.939,249.084
-0.084,1.282,-0.033,-110.229,8.484,236.755
-0.046,1.394,-0.054,-128.845,2.869,216.370
0.034,1.430,-0.101,-150.818,-5.615,199.219
0.119,1.368,-0.154,-163.696,-12.451,190.369
0.201,1.266,-0.223,-156.311,-14.526,185.120
0.282,1.173,-0.266,-129.517,-11.292,182.190
0.370,1.126,-0.269,-92.041,-4.395,182.678
0.446,1.106,-0.247,-57.129,2.686,185.547
0.503,0.980,-0.190,-35.645,9.766,187.134
0.529,0.794,-0.111,-27.527,13.916,182.434
0.542,0.601,-0.016,-26.489,12.756,169.189
0.559,0.424,0.033,-29.602,5.188,149.902
0.562,0.260,0.045,-33.630,-5.432,127.197
0.584,0.185,0.017,-35.461,-16.357,102.600
0.637,0.184,-0.024,-35.156,-25.269,79.407
0.661,0.181,-0.074,-36.987,-28.870,63.293
0.631,0.138,-0.098,-40.283,-25.452,51.941
0.577,0.085,-0.089,-37.659,-18.677,40.955
0.517,0.038,-0.067,-27.405,-13.184,30.334
0.469,-0.033,-0.065,-11.597,-9.155,20.142
0.404,-0.113,-0.063,5.676,-6.042,8.850
0.351,-0.170,-0.070,24.536,-3.845,-6.409
0.297,-0.161,-0.080,42.542,-2.197,-26.489
0.267,-0.084,-0.109,57.556,-1.526,-47.974
0.238,0.004,-0.158,66.406,-1.404,-67.383
0.205,0.096,-0.221,66.589,-0.488,-86.365
0.172,0.183,-0.281,59.570,0.732,-107.239
0.143,0.247,-0.330,49.011,2.563,-128.906
0.094,0.283,-0.332,40.039,5.127,-149.597
0.017,0.316,-0.281,41.260,7.141,-168.335
-0.032,0.302,-0.237,61.462,5.676,-182.922
-0.064,0.254,-0.211,102.539,5.005,-195.435
-0.058,0.275,-0.159,158.630,10.315,-212.952
-0.049,0.474,-0.054,221.802,22.156,-234.375
-0.027,0.874,0.053,277.649,37.537,-249.146
-0.099,1.294,0.140,313.354,53.955,-246.338
-0.206,1.583,0.193,323.303,67.810,-230.957
-0.302,1.720,0.247,312.805,76.355,-213.867
-0.399,1.709,0.310,291.443,80.933,-202.332
-0.469,1.630,0.402,269.165,83.191,-199.768
-0.505,1.552,0.540,258.179,85.266,-205.383
-0.560,1.524,0.726,264.893,90.942,-211.609
-0.608,1.557,0.937,286.011,98.999,-210.876
-0.680,1.602,1.086,311.279,105.591,-198.120
-0.764,1.636,1.207,332.581,108.093,-172.424
-0.812,1.627,1.250,343.811,104.065,-142.456
-0.820,1.650,1.234,340.759,97.961,-115.417
-0.839,1.646,1.156,323.303,93.628,-89.722
-0.854,1.596,1.071,291.748,90.698,-67.810
-0.853,1.529,1.054,251.709,89.783,-52.734
-0.871,1.379,1.025,210.327,88.989,-42.175
-0.922,1.213,1.025,176.392,89.050,-34.668
-0.944,0.982,1.056,155.640,84.473,-31.433
-0.919,0.775,1.095,148.437,78.857,-32.227
-0.909,0.620,1.107,155.029,75.623,-29.724
-0.893,0.520,1.105,173.157,71.167,-27.283
-0.860,0.474,1.071,196.167,66.101,-24.902
-0.826,0.514,1.040,213.745,63.293,-23.315
-0.819,0.622,1.024,216.919,63.354,-20.996
-0.823,0.698,1.001,198.730,60.181,-14.587
-0.815,0.700,0.985,164.917,54.565,-5.981
-0.807,0.630,0.999,127.747,49.316,1.770
-0.794,0.514,0.994,96.008,42.908,7.202
-0.766,0.383,0.974,73.547,35.400,8.789
-0.720,0.264,0.943,62.683,29.114,6.653
-0.687,0.174,0.902,62.378,23.682,2.441
-0.658,0.130,0.857,70.068,19.531,-2.319
-0.621,0.114,0.819,83.435,17.029,-6.470
-0.588,0.126,0.781,99.121,16.968,-10.254
-0.550,0.188,0.778,111.877,19.775,-14.099
-0.519,0.281,0.819,116.638,23.376,-15.686
-0.521,0.370,0.883,108.398,24.109,-13.000
-0.528,0.394,0.920,87.097,18.494,-6.409
-0.506,0.329,0.902,59.509,8.545,0.305
-0.478,0.244,0.870,37.354,0.732,4.211
-0.448,0.167,0.850,27.344,-1.282,4.456
-0.427,0.118,0.824,28.320,-0.854,3.113
-0.399,0.084,0.798,36.865,0.427,1.892
-0.383,0.074,0.768,48.950,3.967,0.732
-0.349,0.087,0.763,59.082,8.667,-1.282
-0.340,0.110,0.782,62.195,12.268,-3.479
-0.336,0.121,0.808,56.824,14.343,-5.249
-0.329,0.115,0.813,45.227,13.977,-7.568
-0.314,0.102,0.817,31.006,13.184,-11.719
-0.306,0.085,0.823,19.043,14.099,-17.090
-0.284,0.081,0.854,10.071,15.015,-22.766
-0.252,0.082,0.889,5.188,16.296,-28.625
-0.254,0.091,0.898,4.517,15.625,-32.288
-0.226,0.114,0.900,8.667,13.367,-32.959
-0.223,0.146,0.927,18.555,12.817,-30.640
-0.228,0.171,0.944,30.518,13.855,-24.780
-0.243,0.183,0.971,40.405,13.672,-17.578
-0.249,0.179,0.984,45.105,11.353,-10.742
-0.250,0.170,0.987,42.969,8.118,-6.165
-0.255,0.160,0.963,34.119,4.944,-4.578

-1.261,0.854,0.960,-229.370,-23.560,14.526
-1.362,0.832,1.011,-258.789,-36.011,14.038
-1.426,0.812,1.003,-264.282,-50.842,17.151
-1.449,0.867,0.938,-246.155,-65.063,24.536
-1.457,1.000,0.862,-220.337,-74.463,36.316
-1.451,1.125,0.786,-203.979,-79.712,52.673
-1.452,1.239,0.777,-204.895,-79.407,68.481
-1.458,1.341,0.830,-221.069,-74.158,81.177
-1.448,1.417,0.913,-247.620,-69.275,90.454
-1.441,1.466,0.997,-271.179,-66.284,98.450
-1.394,1.509,1.091,-278.198,-64.697,109.192
-1.392,1.520,1.104,-264.648,-70.374,129.028
-1.467,1.414,0.994,-237.488,-75.745,159.119
-1.260,1.537,0.900,-213.501,-79.224,168.640
-1.169,1.611,0.745,-193.115,-79.590,180.847
-1.122,1.700,0.660,-195.007,-69.885,192.017
-1.043,1.696,0.607,-205.933,-57.190,196.045
-0.964,1.679,0.525,-213.745,-42.175,197.449
-0.863,1.669,0.443,-213.684,-27.771,200.378
-0.778,1.642,0.369,-202.759,-15.381,206.360
-0.698,1.653,0.338,-186.646,-4.761,214.417
-0.652,1.618,0.305,-178.955,0.549,221.069
-0.598,1.536,0.264,-176.697,-0.793,221.985
-0.514,1.486,0.203,-171.326,-5.859,219.299
-0.421,1.430,0.071,-163.147,-12.207,217.407
-0.295,1.359,-0.058,-154.480,-16.235,213.440
-0.172,1.280,-0.126,-150.757,-14.526,206.177
-0.066,1.231,-0.122,-148.010,-8.972,197.815
0.039,1.175,-0.087,-143.555,-5.127,192.932
0.156,1.059,-0.037,-138.367,-6.409,190.552
0.253,0.928,-0.013,-127.808,-12.207,186.340
0.385,0.837,-0.032,-108.765,-20.752,178.528
0.527,0.787,-0.033,-91.125,-28.992,165.222
0.623,0.713,-0.037,-81.848,-34.973,150.085
0.695,0.633,-0.068,-78.491,-40.649,133.667
0.784,0.566,-0.101,-78.125,-45.898,116.821
0.837,0.489,-0.141,-81.604,-46.143,99.609
0.864,0.383,-0.141,-85.205,-43.457,83.496
0.872,0.306,-0.116,-82.153,-38.818,66.711
0.827,0.287,-0.069,-70.862,-35.156,48.096
0.808,0.305,-0.060,-53.955,-34.424,35.278
0.767,0.290,-0.125,-29.968,-32.837,28.870
0.755,0.301,-0.180,-5.188,-27.710,23.376
0.691,0.308,-0.207,11.658,-18.188,15.869
0.607,0.287,-0.208,21.301,-7.935,7.019
0.516,0.258,-0.195,26.978,0.183,-4.272
0.424,0.240,-0.186,28.992,5.310,-18.799
0.332,0.217,-0.191,27.161,7.141,-36.377
0.247,0.188,-0.208,23.132,6.653,-56.763
0.181,0.158,-0.230,20.813,5.615,-79.590
0.111,0.140,-0.223,24.902,6.287,-101.807
0.013,0.174,-0.157,41.199,7.935,-121.887
-0.063,0.203,-0.104,76.538,7.629,-136.414
-0.103,0.301,-0.089,127.686,7.507,-144.836
-0.089,0.558,-0.121,183.472,12.939,-147.034
-0.121,0.819,-0.163,221.924,27.466,-138.916
-0.223,0.951,-0.166,234.497,48.767,-125.122
-0.334,0.981,-0.097,227.295,71.838,-117.493
-0.449,0.960,0.023,210.022,89.172,-120.544
-0.552,0.949,0.178,190.063,96.680,-133.484
-0.633,0.916,0.313,178.833,94.971,-149.353
-0.683,0.862,0.426,186.035,88.989,-161.438
-0.709,0.806,0.510,215.515,85.144,-169.922
-0.708,0.832,0.630,260.864,86.060,-176.758
-0.722,0.980,0.763,309.814,89.478,-181.152
-0.720,1.199,0.868,346.375,91.980,-181.030
-0.721,1.450,0.951,352.966,92.285,-175.781
-0.771,1.610,0.980,322.266,90.515,-166.321
-0.832,1.635,0.982,260.376,86.670,-159.363
-0.889,1.546,0.967,189.453,79.895,-159.424
-0.889,1.428,0.958,129.639,70.679,-164.307
-0.904,1.275,0.935,93.506,61.523,-168.152
-0.896,1.146,0.897,86.182,53.467,-168.457
-0.868,1.076,0.888,108.032,48.523,-163.391
-0.848,1.012,0.879,151.672,49.072,-151.184
-0.834,1.007,0.906,206.787,53.406,-133.118
-0.827,1.035,0.949,257.690,58.777,-111.511
-0.812,1.088,0.942,287.354,61.401,-88.623
-0.828,1.112,0.903,286.987,61.829,-65.674
-0.828,1.118,0.866,260.986,63.904,-47.058
-0.834,1.043,0.836,217.712,67.932,-32.715
-0.829,0.885,0.831,171.265,71.594,-22.827
-0.818,0.703,0.866,139.954,75.256,-17.639
-0.827,0.536,0.900,127.808,76.782,-16.357
-0.807,0.427,0.909,132.324,72.876,-15.747
-0.759,0.369,0.891,152.405,65.796,-14.099
-0.709,0.357,0.875,187.256,62.500,-8.484
-0.678,0.373,0.880,227.417,64.026,0.366
-0.670,0.402,0.914,254.456,66.895,9.949
-0.685,0.418,0.935,258.118,66.284,17.029
-0.680,0.400,0.910,236.267,61.584,19.592
-0.657,0.348,0.857,193.359,55.725,15.747
-0.618,0.274,0.817,140.625,52.124,5.371
-0.575,0.199,0.798,91.309,51.270,-8.728
-0.546,0.148,0.836,53.711,52.612,-24.658
-0.523,0.122,0.871,32.593,53.467,-38.269
-0.491,0.112,0.923,27.283,50.964,-46.570
-0.469,0.127,0.969,37.598,44.495,-48.523
-0.453,0.169,1.000,63.660,34.912,-42.358
-0.430,0.215,1.000,94.482,24.902,-30.579
-0.415,0.255,0.962,113.647,16.418,-17.822
-0.392,0.248,0.890,113.098,10.193,-8.118
-0.363,0.193,0.814,94.604,7.751,-4.395
-0.325,0.136,0.772,67.505,9.521,-7.385
-0.294,0.091,0.755,40.710,14.404,-14.832
-0.261,0.060,0.755,18.188,18.860,-23.560
-0.224,0.027,0.771,2.075,21.301,-31.494
-0.208,0.004,0.838,-6.897,22.461,-39.429
-0.209,0.010,0.920,-6.714,20.447,-46.265
-0.222,0.034,0.965,3.845,15.869,-49.011
-0.216,0.074,0.993,23.132,11.169,-47.302
-0.226,0.124,0.994,42.297,8.057,-42.847
-0.238,0.172,0.971,52.307,5.127,-36.560
-0.242,0.186,0.923,49.988,2.869,-30.029
-0.232,0.170,0.876,36.743,2.502,-25.696
-0.224,0.148,0.860,20.325,5.737,-23.987
-0.204,0.114,0.859,4.822,11.169,-23.254
-0.193,0.068,0.892,-6.104,16.479,-23.560
-0.189,0.028,0.947,-11.536,19.409,-25.085

-1.254,1.227,0.768,-449.402,53.284,-88.928
-1.480,1.442,0.858,-480.408,45.837,-72.571
-1.669,1.598,0.877,-494.751,30.823,-45.471
-1.799,1.724,0.828,-502.380,12.268,-13.062
-1.843,1.970,0.833,-506.226,-3.845,16.968
-1.851,2.198,0.654,-517.334,-17.517,48.096
-1.839,2.334,0.455,-533.325,-19.897,85.876
-1.836,2.430,0.251,-541.260,-8.850,120.789
-1.862,2.422,0.086,-540.710,15.747,143.250
-1.808,2.539,0.001,-533.752,45.349,151.855
-1.712,2.701,0.018,-524.902,67.078,162.842
-1.594,2.768,0.032,-506.958,75.073,190.491
-1.382,2.598,-0.132,-462.219,73.853,234.070
-1.091,2.380,-0.377,-418.518,72.998,271.973
-0.925,2.175,-0.444,-401.794,79.407,283.142
-0.676,2.163,-0.597,-412.170,80.505,272.095
-0.443,2.016,-0.977,-406.738,100.098,253.479
-0.179,1.802,-1.157,-363.037,130.859,265.686
-0.080,1.681,-1.311,-310.364,173.279,263.550
0.038,1.727,-1.434,-283.325,210.022,245.300
0.183,1.719,-1.499,-269.531,236.023,222.290
0.291,1.669,-1.388,-246.094,259.766,206.360
0.284,1.595,-1.171,-194.580,276.428,204.773
0.305,1.467,-1.007,-120.361,275.330,218.445
0.389,1.449,-0.876,-60.974,258.118,222.473
0.467,1.464,-0.835,-38.818,229.248,212.402
0.564,1.413,-0.829,-44.983,193.298,199.585
0.695,1.374,-0.847,-57.190,160.278,189.392
0.877,1.250,-0.909,-66.162,135.498,185.242
1.048,1.047,-0.930,-71.716,122.375,182.251
1.192,0.888,-0.917,-72.144,120.789,171.753
1.267,0.727,-0.860,-65.918,126.831,157.654
1.301,0.565,-0.672,-52.429,135.071,144.226
1.237,0.484,-0.406,-29.724,135.681,131.226
1.161,0.345,-0.236,-5.432,121.033,122.986
1.074,0.234,-0.162,5.981,91.858,110.657
1.022,0.250,-0.196,5.371,55.786,84.290
1.015,0.344,-0.300,4.089,25.391,55.054
0.988,0.399,-0.406,10.010,6.714,35.339
0.940,0.417,-0.481,20.203,-0.366,21.118
0.866,0.457,-0.506,27.832,-1.038,5.798
0.766,0.514,-0.534,27.588,1.282,-8.911
0.637,0.532,-0.525,18.372,3.113,-22.034
0.490,0.534,-0.518,6.226,2.136,-34.546
0.382,0.537,-0.502,-4.944,-0.854,-45.349
0.227,0.510,-0.457,-10.193,-6.165,-53.467
0.079,0.450,-0.418,-2.380,-15.137,-58.228
-0.036,0.389,-0.412,16.907,-27.283,-63.110
-0.087,0.323,-0.449,38.452,-41.443,-74.158
-0.095,0.302,-0.512,57.922,-53.162,-92.529
-0.094,0.346,-0.597,76.172,-59.509,-114.380
-0.088,0.559,-0.679,94.177,-60.730,-134.521
-0.113,0.825,-0.780,106.995,-57.800,-145.569
-0.174,0.967,-0.815,106.140,-50.720,-142.944
-0.293,0.976,-0.740,93.628,-42.358,-137.817
-0.416,0.956,-0.651,77.515,-39.063,-141.357
-0.524,0.899,-0.537,68.665,-43.823,-150.146
-0.618,0.813,-0.429,74.951,-53.772,-158.936
-0.710,0.709,-0.360,101.990,-67.200,-167.236
-0.688,0.598,-0.338,147.827,-81.482,-179.687
-0.610,0.578,-0.320,198.669,-92.285,-199.951
-0.495,0.701,-0.334,244.751,-96.802,-226.013
-0.360,1.022,-0.391,278.748,-93.872,-249.512
-0.343,1.358,-0.395,294.800,-85.632,-256.958
-0.395,1.648,-0.447,301.453,-74.463,-245.544
-0.422,1.784,-0.397,308.899,-57.373,-222.229
-0.476,1.754,-0.309,317.566,-37.109,-197.388
-0.505,1.628,-0.123,327.148,-13.428,-185.364
-0.568,1.439,0.125,343.079,10.559,-184.814
-0.665,1.279,0.410,370.178,29.541,-186.462
-0.689,1.166,0.700,411.194,37.781,-186.646
-0.647,1.168,0.866,453.369,32.532,-182.800
-0.575,1.316,0.864,479.004,19.409,-174.377
-0.499,1.503,0.824,484.680,11.902,-160.156
-0.455,1.728,0.759,463.196,12.756,-140.930
-0.462,1.817,0.684,416.138,18.799,-116.028
-0.524,1.727,0.702,359.802,27.771,-88.318
-0.565,1.415,0.689,308.777,36.072,-58.655
-0.593,1.080,0.706,272.156,41.931,-38.879
-0.699,0.785,0.671,257.751,45.410,-32.104
-0.568,0.665,0.700,261.108,49.805,-28.870
-0.708,0.498,0.788,275.452,50.903,-26.306
-0.593,0.441,0.824,290.955,42.786,-32.715
-0.516,0.476,0.783,299.438,35.767,-37.781
-0.499,0.553,0.732,298.035,37.476,-36.743
-0.493,0.641,0.699,288.330,45.898,-34.485
-0.504,0.736,0.730,267.090,55.054,-29.358
-0.522,0.750,0.751,232.361,60.303,-18.311
-0.536,0.644,0.743,183.472,58.960,-5.127
-0.518,0.452,0.720,129.761,53.345,2.075
-0.504,0.245,0.714,87.341,48.889,0.183
-0.483,0.098,0.715,64.819,47.668,-8.850
-0.462,0.051,0.753,62.012,48.706,-21.179
-0.423,0.073,0.792,76.233,52.246,-31.067
-0.403,0.106,0.790,97.351,57.800,-33.569
-0.401,0.168,0.834,114.319,63.477,-32.288
-0.393,0.232,0.897,122.009,67.383,-30.029
-0.406,0.284,0.969,114.807,65.674,-26.123
-0.415,0.306,1.031,92.712,55.969,-21.973
-0.406,0.268,1.032,63.477,42.175,-19.714
-0.385,0.210,1.003,35.156,29.724,-20.569
-0.348,0.134,0.985,13.611,21.912,-24.658
-0.307,0.068,0.987,2.319,19.409,-30.762
-0.278,0.023,0.977,1.343,19.409,-36.499
-0.248,0.028,0.960,10.193,20.447,-40.649
-0.231,0.068,0.964,24.963,21.667,-41.870
-0.219,0.125,0.982,39.490,21.057,-39.612
-0.205,0.178,1.001,48.279,18.494,-36.011
-0.205,0.232,1.017,48.035,14.832,-32.104
-0.200,0.275,1.026,39.124,11.963,-28.870
-0.203,0.279,1.047,24.292,11.658,-26.978
-0.209,0.260,1.086,9.888,13.611,-26.062
-0.199,0.230,1.112,-0.732,13.550,-25.940
-0.178,0.199,1.122,-6.653,10.681,-26.184
-0.151,0.173,1.118,-6.592,6.165,-26.367
-0.119,0.151,1.099,-1.892,0.671,-26.306
-0.091,0.151,1.057,5.188,-5.493,-26.001
-0.055,0.141,0.994,11.414,-11.658,-25.269
-0.016,0.137,0.929,14.526,-15.015,-25.452

-1.037,0.370,1.196,-84.229,-30.457,41.199
-1.094,0.450,1.191,-76.294,-43.579,46.021
-1.164,0.539,1.199,-73.364,-54.138,54.993
-1.234,0.621,1.238,-79.529,-61.707,65.735
-1.291,0.729,1.385,-91.675,-68.176,76.355
-1.342,0.821,1.523,-114.929,-76.904,87.952
-1.410,0.835,1.556,-152.100,-89.172,100.952
-1.414,0.845,1.652,-184.143,-97.107,114.563
-1.410,0.919,1.770,-195.068,-106.445,129.395
-1.408,1.035,1.812,-181.274,-114.380,155.396
-1.387,1.085,1.819,-156.677,-121.582,189.819
-1.340,1.122,1.838,-138.245,-129.395,221.985
-1.292,1.100,1.850,-141.846,-136.780,242.615
-1.286,1.095,1.893,-168.701,-145.020,248.352
-1.218,1.175,1.936,-203.186,-155.457,241.394
-1.125,1.403,1.885,-241.211,-167.725,231.018
-0.998,1.572,1.783,-278.931,-180.298,230.103
-0.849,1.609,1.616,-301.880,-189.026,236.572
-0.711,1.575,1.418,-301.331,-190.552,243.591
-0.584,1.543,1.244,-282.959,-187.561,248.840
-0.448,1.531,1.122,-256.165,-184.204,252.930
-0.353,1.547,0.986,-240.112,-182.129,254.822
-0.235,1.568,0.805,-245.178,-180.969,252.563
-0.102,1.506,0.577,-265.198,-175.110,248.474
-0.003,1.300,0.366,-287.415,-158.569,243.164
0.081,1.119,0.234,-295.227,-129.639,231.445
0.157,1.022,0.194,-291.016,-96.069,214.294
0.232,1.022,0.329,-275.330,-67.993,198.181
0.256,0.954,0.415,-231.812,-53.467,195.007
0.296,0.839,0.364,-160.522,-53.040,200.562
0.439,1.026,0.258,-85.693,-57.129,197.327
0.556,1.234,0.117,-38.635,-59.387,186.646
0.681,1.302,0.021,-26.917,-56.763,174.133
0.814,1.237,0.003,-35.522,-46.875,157.471
0.949,1.096,0.049,-47.058,-35.767,137.695
1.095,0.908,0.060,-52.734,-29.480,114.929
1.231,0.812,0.101,-49.927,-23.926,85.938
1.318,0.940,0.198,-38.513,-19.470,54.321
1.378,1.154,0.286,-20.142,-24.109,33.386
1.395,1.191,0.194,-0.610,-37.048,35.645
1.360,1.031,0.025,5.432,-45.776,41.809
1.317,0.912,-0.063,-4.456,-42.908,29.236
1.241,0.829,-0.045,-17.395,-33.081,8.057
1.120,0.711,-0.021,-21.606,-23.315,-6.287
1.005,0.621,-0.015,-18.250,-16.296,-16.602
0.877,0.564,-0.032,-16.235,-11.475,-28.992
0.723,0.556,-0.051,-18.311,-6.714,-43.701
0.573,0.586,-0.076,-19.775,-3.723,-60.669
0.439,0.666,-0.101,-17.212,-1.709,-78.857
0.289,0.768,-0.088,-10.742,-0.732,-94.849
0.139,0.890,-0.081,0.366,-1.892,-103.638
0.012,1.014,-0.135,9.888,-5.432,-106.384
-0.094,1.082,-0.235,5.798,-8.423,-108.215
-0.199,1.043,-0.310,-12.695,-7.874,-113.342
-0.298,0.946,-0.354,-36.133,-4.456,-124.512
-0.380,0.886,-0.334,-49.011,-0.671,-138.428
-0.449,0.909,-0.300,-40.222,4.150,-150.452
-0.511,0.963,-0.225,-13.916,10.132,-155.396
-0.576,1.005,-0.151,21.545,15.686,-153.015
-0.633,1.047,-0.075,59.509,23.132,-149.109
-0.701,1.134,0.052,89.111,31.799,-149.231
-0.787,1.259,0.179,103.455,35.828,-151.184
-0.860,1.323,0.259,98.938,30.762,-152.710
-0.928,1.339,0.283,78.125,18.860,-156.067
-0.980,1.357,0.243,50.232,2.380,-163.757
-0.988,1.375,0.141,22.644,-17.639,-173.706
-0.969,1.375,0.026,1.160,-37.048,-182.922
-0.919,1.378,-0.058,-8.789,-49.072,-187.866
-0.885,1.413,-0.099,1.892,-45.654,-186.340
-0.861,1.508,-0.099,35.522,-27.039,-172.546
-0.892,1.554,0.004,76.660,-0.122,-145.630
-0.991,1.460,0.142,109.863,24.536,-113.220
-1.064,1.334,0.270,125.244,38.147,-91.858
-1.100,1.252,0.369,121.704,38.147,-88.440
-1.089,1.210,0.401,102.905,26.611,-94.849
-1.051,1.153,0.374,74.707,8.667,-102.966
-0.997,1.079,0.301,47.791,-8.484,-109.436
-0.915,1.050,0.197,30.334,-22.156,-114.075
-0.829,1.057,0.101,23.193,-28.931,-114.929
-0.759,1.085,0.021,24.658,-28.198,-110.291
-0.728,1.101,-0.017,31.982,-19.287,-100.525
-0.706,1.108,0.023,41.626,-6.714,-88.562
-0.733,1.053,0.093,52.002,3.174,-74.768
-0.732,0.991,0.145,58.044,7.996,-60.791
-0.751,0.915,0.191,58.167,7.568,-51.208
-0.735,0.826,0.217,53.589,2.686,-49.744
-0.703,0.781,0.211,44.556,-4.883,-53.833
-0.670,0.773,0.192,33.142,-12.817,-61.340
-0.630,0.788,0.151,23.499,-19.104,-67.688
-0.601,0.807,0.109,17.517,-22.583,-69.763
-0.569,0.802,0.069,14.526,-22.705,-68.054
-0.542,0.769,0.057,14.893,-20.325,-63.904
-0.529,0.755,0.075,22.217,-15.991,-58.960
-0.530,0.732,0.116,35.400,-12.146,-51.086
-0.533,0.702,0.173,49.866,-10.803,-42.908
-0.522,0.677,0.213,59.021,-13.367,-38.818
-0.491,0.679,0.232,57.495,-19.348,-40.649
-0.464,0.681,0.231,45.288,-27.405,-45.227
-0.438,0.748,0.221,29.175,-34.607,-52.063
-0.394,0.830,0.179,13.916,-39.612,-57.007
-0.385,0.855,0.148,1.099,-41.077,-55.603
-0.376,0.839,0.140,-4.272,-39.551,-50.476
-0.372,0.797,0.162,0.122,-36.682,-44.556
-0.371,0.768,0.190,10.193,-33.997,-39.124
-0.364,0.733,0.210,21.057,-33.325,-35.339
-0.358,0.698,0.229,27.344,-33.936,-34.546
-0.348,0.718,0.254,28.687,-34.668,-38.208
-0.328,0.750,0.287,26.428,-36.804,-43.640
-0.308,0.793,0.297,22.644,-40.649,-46.570
-0.277,0.858,0.272,18.860,-43.701,-48.279
-0.245,0.903,0.245,15.991,-43.762,-49.377
-0.245,0.913,0.230,15.625,-40.588,-47.791
-0.242,0.911,0.229,20.325,-35.828,-44.189
-0.236,0.909,0.233,28.320,-31.250,-40.466
-0.232,0.913,0.243,33.569,-26.978,-36.804
-0.239,0.911,0.272,32.410,-23.560,-34.546
-0.247,0.928,0.306,27.405,-21.790,-34.668
-0.241,0.960,0.334,21.240,-22.095,-35.217
-0.240,0.987,0.346,14.648,-23.315,-34.546
