aX,aY,aZ,gX,gY,gZ
-2.494,0.288,-0.005,-120.789,75.500,27.832
-2.902,0.275,-0.022,-50.232,100.220,49.561
-3.319,0.332,0.153,34.790,133.362,77.271
-3.551,0.321,0.467,109.497,162.231,109.192
-3.614,0.195,0.849,155.518,177.551,138.733
-3.759,-0.025,1.015,170.715,175.537,159.180
-3.943,-0.290,0.951,163.208,163.330,171.265
-4.000,-0.587,0.700,153.625,152.466,178.162
-4.000,-0.909,0.371,159.424,146.912,182.251
-3.945,-1.197,0.054,183.167,144.836,178.467
-3.550,-1.371,-0.223,214.783,150.452,155.212
-2.988,-1.313,-0.310,241.028,162.231,113.342
-2.447,-0.997,-0.082,256.409,172.485,67.322
-1.752,-0.741,0.098,249.146,166.565,34.912
-0.817,-0.502,0.093,216.553,138.489,18.738
0.501,-0.644,-0.041,173.645,102.539,26.611
2.132,-1.047,-0.332,117.615,80.017,40.161
3.867,-1.363,-0.636,31.372,69.885,13.794
4.000,-1.310,-0.398,-42.175,96.252,-50.476
4.000,-0.573,0.245,-64.209,162.476,-150.513
4.000,0.620,1.118,-27.649,208.557,-251.221
4.000,2.277,1.588,51.880,191.345,-318.359
4.000,3.998,1.773,185.608,147.400,-322.876
4.000,4.000,2.037,319.397,116.394,-239.929
4.000,4.000,2.298,338.928,47.424,-107.361
3.651,4.000,2.057,215.271,-74.951,12.878
4.000,2.781,1.367,-7.812,-225.952,97.595
4.000,0.749,0.405,-230.835,-346.252,149.170
4.000,-0.972,-0.392,-347.107,-360.474,168.091
3.986,-1.833,-0.484,-289.124,-287.842,162.292
2.844,-1.877,-0.078,-99.854,-208.252,150.146
1.795,-1.567,0.284,81.482,-168.579,128.174
0.967,-1.067,0.518,147.400,-163.086,90.942
0.243,-0.623,0.562,93.262,-171.326,53.406
-0.242,-0.581,0.483,-20.935,-173.828,33.813
-0.643,-0.853,0.400,-133.789,-165.344,23.926
-1.006,-1.269,0.343,-205.505,-144.104,10.620
-1.306,-1.583,0.281,-214.478,-115.112,-13.367
-1.676,-1.611,0.179,-172.424,-86.060,-49.133
-2.143,-1.327,0.009,-113.770,-58.899,-92.102
-2.552,-0.649,-0.073,-75.195,-31.189,-141.052
-2.887,0.191,0.029,-73.975,-4.639,-184.631
-3.051,0.859,0.314,-104.675,11.719,-205.383
-3.007,1.091,0.682,-145.203,17.029,-194.519
-2.850,0.919,1.037,-174.500,18.188,-162.231
-2.603,0.538,1.396,-176.819,11.780,-130.493
-2.361,0.215,1.613,-148.437,2.869,-111.023
-2.166,0.121,1.630,-96.802,-0.916,-98.022
-1.950,0.164,1.536,-33.203,-4.517,-77.576
-1.654,0.254,1.422,19.653,-11.536,-52.612
-1.363,0.404,1.286,44.128,-20.630,-27.771
-1.150,0.507,1.204,40.161,-28.931,-7.874
-1.025,0.520,1.226,21.301,-37.231,5.554
-0.970,0.413,1.280,2.502,-47.729,14.160
-0.914,0.285,1.240,-2.808,-62.195,19.470
-0.845,0.221,1.073,5.432,-76.111,24.841
-0.731,0.148,0.878,21.179,-86.731,30.701
-0.600,0.091,0.679,32.593,-88.379,33.813
-0.518,0.073,0.548,34.668,-76.233,32.104
-0.480,0.073,0.492,25.391,-55.908,24.536
-0.489,0.104,0.503,6.775,-35.522,11.475
-0.528,0.113,0.563,-15.686,-19.531,-1.038
-0.561,0.068,0.647,-35.461,-12.451,-9.033
-0.580,0.038,0.730,-43.091,-14.099,-15.076
-0.587,0.046,0.769,-36.438,-21.973,-19.775
-0.581,0.097,0.742,-20.569,-31.860,-21.301
-0.548,0.154,0.682,-3.906,-38.025,-19.287
-0.526,0.188,0.619,7.874,-37.598,-14.832
-0.530,0.198,0.599,11.719,-31.128,-10.864
-0.542,0.182,0.630,6.165,-23.010,-10.681
-0.575,0.159,0.692,-7.385,-16.052,-13.855
-0.617,0.138,0.756,-23.621,-11.658,-19.348
-0.660,0.131,0.814,-34.546,-11.414,-24.475
-0.686,0.137,0.848,-35.583,-14.709,-27.283
-0.697,0.167,0.832,-25.757,-20.691,-27.405
-0.686,0.210,0.785,-8.789,-25.452,-23.437
-0.655,0.232,0.746,8.301,-26.184,-16.907
-0.643,0.237,0.719,18.799,-21.912,-12.024
-0.652,0.245,0.707,18.921,-14.343,-10.864
-0.654,0.240,0.729,10.071,-7.324,-12.695
-0.679,0.231,0.782,-1.465,-3.540,-16.418
-0.689,0.227,0.810,-11.108,-3.174,-20.874
-0.678,0.250,0.799,-17.151,-6.897,-24.902
-0.670,0.286,0.769,-17.517,-11.047,-26.184
-0.663,0.299,0.740,-10.620,-13.550,-22.644
-0.639,0.307,0.709,0.061,-15.808,-16.846
-0.627,0.302,0.678,10.803,-15.076,-10.681
-0.627,0.295,0.662,17.090,-12.085,-6.165
-0.616,0.286,0.651,16.907,-8.850,-3.845
-0.608,0.282,0.658,12.329,-6.287,-2.625
-0.614,0.274,0.683,4.822,-4.028,-1.526
-0.617,0.272,0.719,-3.662,-3.845,-1.587
-0.616,0.268,0.740,-10.254,-5.859,-2.686
-0.617,0.258,0.740,-12.512,-8.545,-3.723
-0.611,0.269,0.732,-8.362,-11.353,-4.333
-0.611,0.286,0.721,0.183,-12.695,-3.296
-0.611,0.287,0.713,10.071,-11.230,0.122
-0.601,0.293,0.715,16.479,-9.521,3.174
-0.608,0.304,0.727,16.235,-7.263,4.272
-0.613,0.305,0.736,8.972,-6.165,4.517
-0.610,0.297,0.739,-1.343,-6.653,4.150
-0.610,0.273,0.748,-9.277,-7.751,3.418
-0.614,0.251,0.748,-12.207,-9.094,2.319
-0.607,0.236,0.732,-10.071,-10.925,1.709
-0.610,0.233,0.720,-4.333,-11.108,1.953
-0.614,0.231,0.710,2.930,-9.827,2.869
-0.605,0.227,0.695,8.484,-7.629,3.723
-0.600,0.222,0.677,10.742,-4.822,3.235
-0.599,0.226,0.684,9.644,-1.404,2.319
-0.599,0.236,0.710,5.310,0.793,1.160
-0.612,0.251,0.756,-0.732,0.977,0.061
-0.613,0.257,0.781,-6.836,-1.282,-0.671
-0.601,0.259,0.774,-10.925,-5.737,-1.038
-0.590,0.255,0.750,-9.766,-9.094,-0.977
-0.576,0.259,0.725,-3.723,-9.766,0.061
-0.559,0.264,0.694,3.540,-8.240,1.160
-0.553,0.276,0.687,8.667,-4.395,1.831
-0.564,0.275,0.697,9.949,0.244,1.892
-0.575,0.271,0.714,7.019,3.357,0.916

-1.988,0.477,0.431,-34.912,49.988,19.043
-2.276,0.535,0.439,-39.856,65.491,28.687
-2.572,0.574,0.468,-43.213,83.069,42.419
-2.895,0.609,0.526,-44.495,100.952,55.054
-3.137,0.624,0.648,-39.246,115.234,68.970
-3.345,0.537,0.743,-16.174,121.216,91.064
-3.490,0.375,0.713,37.476,117.615,128.845
-3.544,0.182,0.550,118.713,105.225,177.917
-3.731,-0.054,0.192,198.486,85.083,223.145
-3.992,-0.305,-0.375,247.864,56.702,251.465
-4.000,-0.483,-0.988,261.353,22.034,258.667
-3.961,-0.658,-1.566,247.437,-2.747,253.296
-3.614,-0.923,-2.013,223.999,-5.127,242.310
-3.161,-1.170,-2.286,203.125,13.916,219.116
-2.566,-1.196,-2.291,188.171,49.988,187.317
-1.692,-1.285,-2.003,178.589,95.947,158.325
-0.665,-1.296,-1.446,168.701,142.517,128.784
0.431,-1.169,-0.689,155.212,181.763,94.971
1.593,-1.020,0.111,136.353,209.106,71.777
3.092,-1.196,0.647,97.961,215.759,60.242
4.000,-1.395,1.013,41.809,225.403,31.799
4.000,-1.191,1.313,-12.573,266.541,-46.204
4.000,-0.395,1.948,-52.185,318.054,-162.048
4.000,0.678,2.517,-71.167,332.458,-262.634
4.000,1.865,2.642,-58.350,311.340,-312.439
4.000,3.206,2.529,-18.860,293.274,-320.923
4.000,4.000,2.484,23.804,261.780,-275.757
3.322,4.000,2.581,57.312,208.008,-176.941
2.463,4.000,2.598,59.326,115.601,-48.096
2.328,3.266,2.327,3.357,-15.015,78.003
2.840,1.675,1.786,-97.351,-155.762,162.231
3.442,0.261,1.183,-187.134,-254.944,194.275
3.546,-0.639,0.757,-210.754,-282.166,198.425
3.213,-1.077,0.652,-147.278,-260.803,195.862
2.697,-1.177,0.669,-32.410,-234.009,185.364
2.235,-1.068,0.646,67.871,-221.924,167.847
1.752,-0.797,0.619,114.319,-220.337,140.259
1.357,-0.566,0.632,103.882,-216.309,113.220
0.997,-0.501,0.614,56.458,-206.604,91.003
0.670,-0.513,0.529,-4.456,-192.017,70.007
0.334,-0.568,0.503,-58.350,-170.959,47.485
0.036,-0.617,0.553,-95.520,-149.048,27.344
-0.286,-0.666,0.615,-111.572,-130.859,9.888
-0.668,-0.674,0.589,-111.633,-122.253,-6.042
-0.950,-0.609,0.488,-100.586,-121.338,-24.597
-1.213,-0.450,0.366,-82.458,-119.629,-43.884
-1.548,-0.254,0.246,-68.176,-108.887,-59.326
-1.858,-0.086,0.192,-67.749,-93.567,-68.054
-2.007,0.030,0.211,-81.909,-81.543,-69.763
-2.109,-0.014,0.268,-104.309,-72.266,-67.566
-2.065,-0.226,0.393,-128.174,-66.650,-63.171
-1.997,-0.359,0.555,-138.916,-60.974,-60.913
-1.992,-0.392,0.704,-130.676,-50.537,-64.514
-1.881,-0.334,0.806,-110.107,-46.692,-70.435
-1.749,-0.207,0.834,-87.219,-47.546,-80.322
-1.627,-0.038,0.840,-76.172,-47.974,-95.337
-1.552,0.153,0.891,-81.787,-50.781,-113.586
-1.519,0.271,0.911,-101.501,-56.702,-125.977
-1.477,0.297,0.874,-127.380,-69.885,-128.113
-1.412,0.228,0.774,-147.461,-90.637,-121.948
-1.316,0.043,0.642,-151.855,-105.530,-105.530
-1.223,-0.140,0.505,-135.193,-110.840,-86.548
-1.164,-0.251,0.393,-99.731,-106.689,-70.923
-1.099,-0.268,0.344,-55.603,-94.299,-58.594
-1.062,-0.194,0.357,-18.799,-81.421,-49.805
-1.020,-0.092,0.370,-0.854,-72.693,-43.945
-1.004,0.021,0.402,0.061,-67.505,-40.771
-1.009,0.087,0.409,-8.179,-63.171,-39.856
-0.995,0.130,0.400,-18.982,-61.096,-40.833
-0.980,0.152,0.383,-23.804,-59.082,-42.175
-0.962,0.154,0.341,-21.851,-56.213,-42.114
-0.930,0.173,0.302,-14.832,-53.406,-41.199
-0.918,0.222,0.308,-2.869,-49.194,-38.025
-0.905,0.256,0.348,11.047,-43.823,-28.320
-0.900,0.250,0.411,25.513,-38.086,-16.174
-0.932,0.230,0.458,35.950,-32.959,-5.981
-0.937,0.194,0.463,39.917,-30.640,-0.061
-0.936,0.198,0.445,37.781,-30.457,0.305
-0.915,0.205,0.425,30.396,-28.320,-2.686
-0.891,0.228,0.399,21.362,-25.513,-8.118
-0.859,0.288,0.437,14.526,-20.142,-15.137
-0.873,0.325,0.517,13.489,-13.733,-20.813
-0.869,0.373,0.570,17.334,-15.198,-23.132
-0.856,0.398,0.568,23.315,-21.362,-23.193
-0.840,0.406,0.528,27.283,-27.466,-21.973
-0.814,0.398,0.471,28.137,-30.273,-20.020
-0.801,0.395,0.417,25.757,-27.039,-19.348
-0.798,0.416,0.403,18.921,-19.348,-19.470
-0.800,0.429,0.421,9.521,-10.193,-18.433
-0.808,0.433,0.447,2.747,-3.113,-15.625
-0.804,0.431,0.496,1.099,1.831,-11.292
-0.811,0.423,0.571,3.357,2.869,-5.066
-0.818,0.398,0.626,7.629,-1.831,1.465
-0.810,0.362,0.631,11.780,-9.705,6.958
-0.810,0.330,0.614,14.526,-17.151,8.911
-0.804,0.294,0.575,15.747,-21.240,8.179
-0.797,0.292,0.530,15.076,-21.973,5.432
-0.786,0.301,0.489,12.573,-19.470,1.892
-0.783,0.314,0.462,6.897,-14.404,-0.732
-0.779,0.318,0.456,1.099,-8.484,-2.686
-0.779,0.322,0.493,-2.258,-3.784,-3.601
-0.792,0.317,0.546,-3.601,-2.502,-4.333
-0.793,0.299,0.577,-2.625,-4.944,-4.700
-0.791,0.296,0.555,-0.061,-10.559,-4.883
-0.778,0.302,0.516,4.639,-15.015,-4.333
-0.769,0.317,0.479,10.071,-15.442,-2.563
-0.754,0.348,0.432,13.733,-12.451,-0.244
-0.746,0.368,0.410,11.536,-6.836,2.258
-0.748,0.357,0.426,4.944,0.427,3.479
-0.752,0.350,0.457,-1.587,6.104,3.479
-0.748,0.346,0.490,-6.470,8.362,2.808
-0.747,0.336,0.522,-10.132,7.385,2.258
-0.747,0.331,0.532,-11.169,3.723,1.709
-0.746,0.337,0.519,-7.874,-1.099,2.014
-0.744,0.354,0.501,-0.122,-3.479,4.395
-0.743,0.367,0.480,8.423,-2.441,8.728
-0.745,0.371,0.467,12.817,2.014,12.268
-0.755,0.357,0.479,11.169,8.179,13.550
-0.751,0.339,0.501,5.737,13.550,12.512

-2.164,0.241,0.264,-17.212,84.167,50.720
-2.367,0.207,0.229,-17.273,91.614,53.955
-2.530,0.197,0.202,-15.625,99.426,55.725
-2.694,0.174,0.176,-13.123,113.342,58.655
-2.810,0.139,0.143,-5.188,129.700,61.707
-2.892,0.109,0.118,13.306,149.353,65.552
-2.941,0.099,0.103,47.424,172.607,74.524
-2.928,0.107,0.106,95.703,197.510,87.280
-2.953,0.124,0.156,152.100,220.520,102.051
-3.076,0.133,0.230,211.487,234.680,122.437
-3.364,0.110,0.234,263.733,229.675,153.381
-3.691,0.078,0.227,294.434,197.815,186.829
-3.838,-0.091,0.059,291.748,152.222,215.210
-3.803,-0.491,-0.251,251.831,97.778,220.337
-3.445,-0.946,-0.646,194.031,48.401,192.261
-2.921,-1.264,-1.132,143.982,14.099,139.526
-2.175,-1.387,-1.627,132.019,-0.183,90.271
-1.082,-1.518,-1.854,175.354,13.794,62.622
0.319,-1.631,-1.699,238.525,60.486,44.189
1.707,-1.347,-1.112,254.028,120.911,5.188
2.719,-0.754,-0.389,197.754,166.382,-47.729
3.895,-0.167,0.171,88.501,195.190,-82.947
4.000,0.172,0.604,-29.297,224.182,-93.933
4.000,0.083,0.890,-129.211,262.024,-109.497
4.000,-0.153,1.450,-206.360,282.837,-165.405
4.000,0.309,1.924,-218.994,272.888,-246.216
4.000,1.436,2.348,-122.742,281.311,-298.462
4.000,2.604,2.783,33.875,299.316,-267.639
3.412,3.420,3.094,165.466,288.513,-175.964
2.099,3.799,3.390,212.280,236.877,-79.712
1.453,3.453,3.358,160.522,122.559,14.160
1.740,2.510,2.873,48.035,-46.326,100.891
2.700,1.103,2.137,-71.533,-210.632,165.527
3.489,-0.195,1.406,-159.546,-316.589,204.041
3.629,-1.029,0.918,-177.063,-340.454,206.604
3.372,-1.326,0.616,-115.479,-313.110,187.622
2.911,-1.313,0.434,-13.123,-276.917,167.114
2.391,-1.055,0.407,82.581,-252.075,152.222
1.935,-0.687,0.470,131.653,-236.572,135.376
1.580,-0.449,0.499,118.530,-226.685,115.662
1.293,-0.402,0.507,57.434,-216.797,90.942
1.046,-0.488,0.470,-24.048,-205.444,63.293
0.765,-0.611,0.367,-94.788,-190.430,37.170
0.422,-0.673,0.304,-132.935,-168.579,16.724
0.096,-0.682,0.301,-134.033,-143.005,2.747
-0.259,-0.639,0.319,-110.718,-121.033,-5.981
-0.567,-0.575,0.310,-81.482,-106.628,-13.977
-0.902,-0.509,0.244,-58.228,-98.938,-25.024
-1.231,-0.424,0.177,-46.997,-90.759,-40.833
-1.497,-0.322,0.180,-50.476,-79.956,-57.678
-1.684,-0.240,0.261,-67.871,-65.979,-67.932
-1.727,-0.218,0.399,-90.942,-56.274,-71.899
-1.709,-0.232,0.527,-110.535,-54.749,-74.158
-1.708,-0.260,0.556,-121.033,-60.364,-76.355
-1.601,-0.246,0.569,-117.615,-73.059,-80.322
-1.568,-0.189,0.493,-101.868,-83.801,-86.853
-1.484,-0.109,0.381,-87.402,-91.370,-95.764
-1.373,0.003,0.277,-83.130,-99.060,-109.558
-1.363,0.109,0.263,-87.463,-95.337,-120.728
-1.404,0.143,0.308,-95.398,-79.407,-120.911
-1.413,0.110,0.366,-104.614,-65.247,-113.098
-1.443,0.048,0.443,-110.535,-57.556,-105.896
-1.439,-0.024,0.487,-111.572,-56.213,-102.051
-1.387,-0.072,0.500,-107.300,-61.340,-103.821
-1.318,-0.038,0.489,-95.947,-67.139,-111.511
-1.264,0.066,0.422,-76.904,-67.566,-120.850
-1.240,0.214,0.361,-54.016,-60.059,-127.563
-1.263,0.349,0.297,-37.048,-48.096,-127.930
-1.292,0.428,0.326,-29.968,-34.729,-118.042
-1.343,0.414,0.412,-32.349,-24.353,-101.074
-1.388,0.336,0.511,-38.208,-25.146,-84.656
-1.392,0.218,0.527,-36.865,-32.532,-73.059
-1.379,0.155,0.489,-24.536,-42.847,-68.604
-1.316,0.150,0.420,-2.991,-49.866,-70.618
-1.266,0.247,0.338,18.799,-50.110,-74.890
-1.207,0.411,0.262,31.250,-44.983,-76.660
-1.160,0.548,0.229,28.259,-36.987,-74.219
-1.133,0.618,0.244,13.184,-27.222,-66.406
-1.109,0.644,0.297,-3.906,-19.470,-54.077
-1.103,0.590,0.363,-17.761,-17.273,-43.640
-1.082,0.510,0.414,-24.719,-21.179,-32.898
-1.063,0.436,0.410,-20.203,-28.809,-22.461
-1.032,0.396,0.374,-5.249,-34.058,-12.817
-1.001,0.387,0.335,14.832,-35.278,-4.333
-0.963,0.383,0.282,31.860,-31.738,2.197
-0.944,0.386,0.237,40.161,-23.804,6.653
-0.916,0.398,0.249,38.452,-13.611,9.155
-0.881,0.392,0.307,28.198,-4.639,9.399
-0.868,0.373,0.375,14.343,0.427,7.446
-0.863,0.381,0.477,2.808,1.648,4.089
-0.860,0.359,0.530,-4.761,-2.075,1.953
-0.870,0.327,0.540,-8.118,-8.545,1.892
-0.860,0.303,0.526,-3.540,-14.038,2.808
-0.842,0.304,0.512,7.324,-16.663,2.869
-0.819,0.327,0.479,17.578,-15.869,1.953
-0.806,0.378,0.463,21.179,-11.047,0.916
-0.802,0.415,0.479,16.357,-5.188,1.343
-0.798,0.411,0.500,5.920,-1.099,2.075
-0.807,0.393,0.539,-4.272,0.488,1.953
-0.814,0.359,0.568,-10.803,-0.427,1.831
-0.822,0.321,0.582,-13.489,-3.967,2.197
-0.820,0.290,0.559,-11.292,-7.751,0.977
-0.817,0.275,0.519,-5.249,-10.498,-1.038
-0.797,0.277,0.478,4.211,-11.169,-2.563
-0.777,0.289,0.450,15.137,-8.728,-3.601
-0.760,0.322,0.428,21.484,-3.967,-4.883
-0.750,0.376,0.435,20.630,1.953,-5.798
-0.748,0.401,0.469,11.780,7.996,-5.981
-0.768,0.407,0.520,-1.221,11.597,-5.371
-0.789,0.420,0.576,-10.376,12.024,-4.700
-0.800,0.413,0.610,-15.076,8.484,-2.502
-0.802,0.400,0.607,-14.404,2.197,1.587
-0.798,0.390,0.574,-7.202,-2.625,6.348
-0.787,0.386,0.538,2.869,-5.310,11.353
-0.772,0.385,0.499,11.719,-5.737,14.282
-0.758,0.378,0.462,16.602,-3.479,15.381
-0.749,0.371,0.445,16.968,0.122,14.282
-0.745,0.371,0.446,12.756,4.089,11.292
-0.743,0.382,0.470,4.028,7.141,7.874

-2.205,0.401,0.282,-15.991,52.124,63.843
-2.392,0.413,0.211,-20.935,47.119,71.350
-2.618,0.401,0.103,-24.902,44.434,77.820
-2.872,0.395,-0.014,-22.095,45.654,84.839
-3.091,0.420,-0.174,-9.155,50.171,92.224
-3.181,0.468,-0.314,11.353,59.875,101.379
-3.022,0.485,-0.433,37.781,76.599,109.558
-2.909,0.457,-0.495,66.650,103.271,116.699
-2.725,0.411,-0.529,99.304,136.902,123.474
-2.622,0.319,-0.549,133.728,165.894,130.493
-2.747,0.178,-0.656,168.091,185.547,140.381
-3.068,0.030,-0.907,200.989,188.049,159.973
-3.388,-0.094,-1.173,224.915,171.631,192.078
-3.364,-0.326,-1.419,240.173,144.531,224.487
-3.028,-0.699,-1.669,239.929,116.638,242.065
-2.454,-1.137,-1.897,227.417,104.736,239.258
-1.792,-1.455,-2.051,211.487,115.845,207.642
-0.875,-1.678,-2.031,195.557,148.743,157.776
0.112,-1.752,-1.729,182.007,198.425,98.083
1.304,-1.733,-1.057,173.035,249.573,37.720
2.510,-1.408,-0.209,156.250,282.898,-18.250
3.823,-0.918,0.506,126.770,283.691,-60.669
4.000,-0.576,0.950,84.534,276.855,-73.242
4.000,-0.427,1.336,29.114,302.979,-87.891
4.000,0.053,2.153,-42.603,349.670,-159.546
4.000,1.129,2.885,-107.605,364.380,-261.719
4.000,2.444,3.147,-111.450,361.267,-317.444
4.000,3.404,3.192,-49.438,326.233,-278.076
3.428,3.983,3.185,33.081,263.550,-179.504
2.300,4.000,3.116,82.886,179.077,-79.163
1.977,3.415,2.739,62.744,36.316,23.376
2.612,2.079,2.083,-18.799,-137.207,114.746
3.466,0.544,1.295,-112.976,-272.156,171.265
3.849,-0.641,0.724,-161.316,-328.369,189.758
3.576,-1.225,0.542,-127.747,-316.650,182.190
3.024,-1.445,0.535,-30.762,-280.762,161.194
2.469,-1.334,0.616,65.002,-265.320,133.484
2.005,-0.981,0.698,114.319,-270.508,97.595
1.580,-0.589,0.648,106.506,-274.353,65.369
1.221,-0.294,0.525,54.443,-270.386,39.917
0.908,-0.110,0.368,-23.071,-262.390,21.118
0.568,-0.129,0.223,-99.487,-245.789,10.681
0.223,-0.348,0.151,-148.010,-222.412,10.010
-0.095,-0.596,0.089,-157.471,-191.956,10.559
-0.411,-0.787,0.012,-134.644,-161.865,4.150
-0.769,-0.833,-0.120,-98.877,-135.376,-9.277
-1.185,-0.646,-0.187,-68.542,-109.009,-34.180
-1.590,-0.259,-0.166,-60.364,-85.999,-66.711
-1.953,0.158,-0.093,-83.679,-77.515,-93.079
-2.135,0.383,-0.007,-125.610,-84.412,-105.103
-2.077,0.385,0.080,-160.339,-95.947,-101.135
-2.048,0.230,0.131,-169.739,-100.037,-81.055
-2.031,-0.060,0.169,-152.832,-88.379,-47.668
-1.966,-0.326,0.142,-123.169,-70.313,-19.226
-1.858,-0.458,0.157,-96.375,-51.086,-10.376
-1.785,-0.409,0.229,-82.703,-31.860,-20.203
-1.734,-0.279,0.299,-93.628,-21.423,-39.917
-1.637,-0.108,0.386,-122.742,-24.658,-61.951
-1.560,0.041,0.491,-153.870,-32.837,-78.613
-1.541,0.061,0.581,-171.753,-44.250,-82.458
-1.448,-0.045,0.659,-164.856,-50.598,-66.406
-1.385,-0.187,0.747,-127.625,-42.908,-43.274
-1.340,-0.305,0.851,-69.946,-30.151,-25.208
-1.261,-0.306,0.917,-17.090,-23.315,-15.320
-1.239,-0.224,0.904,8.850,-26.062,-15.503
-1.178,-0.130,0.830,9.094,-36.438,-25.696
-1.125,-0.025,0.723,-5.371,-49.377,-42.969
-1.076,0.086,0.587,-22.095,-59.509,-60.913
-1.039,0.201,0.446,-31.372,-64.697,-73.364
-1.005,0.300,0.341,-30.640,-62.012,-79.773
-1.007,0.391,0.329,-25.024,-51.270,-81.543
-1.014,0.459,0.377,-21.240,-40.283,-78.918
-1.012,0.506,0.448,-19.226,-36.316,-72.754
-1.043,0.500,0.514,-12.878,-35.828,-63.110
-1.014,0.495,0.529,-4.578,-36.560,-50.171
-1.017,0.467,0.497,3.662,-36.316,-41.382
-1.056,0.434,0.437,8.545,-29.968,-37.292
-1.069,0.428,0.431,10.681,-23.682,-35.950
-1.063,0.433,0.446,9.216,-17.456,-36.804
-1.062,0.444,0.483,5.249,-13.123,-38.330
-1.045,0.465,0.494,2.563,-13.855,-37.842
-1.020,0.507,0.503,3.601,-17.822,-34.058
-1.007,0.524,0.499,5.859,-22.827,-26.733
-0.981,0.515,0.479,6.409,-29.907,-18.005
-0.957,0.479,0.440,7.202,-35.156,-10.803
-0.932,0.411,0.403,9.216,-36.255,-7.141
-0.919,0.348,0.356,11.169,-33.386,-6.897
-0.915,0.303,0.325,11.536,-28.687,-8.850
-0.900,0.288,0.326,10.376,-24.109,-11.841
-0.882,0.285,0.331,10.071,-20.386,-13.489
-0.878,0.305,0.342,11.475,-17.334,-11.902
-0.872,0.335,0.391,14.893,-15.747,-7.874
-0.879,0.335,0.429,18.982,-15.381,-3.052
-0.880,0.327,0.433,22.156,-18.738,1.953
-0.879,0.323,0.423,25.391,-22.034,4.761
-0.863,0.314,0.390,27.344,-23.437,4.578
-0.842,0.304,0.336,27.893,-23.499,2.625
-0.820,0.298,0.286,26.672,-20.813,0.183
-0.801,0.300,0.251,24.170,-15.686,-2.625
-0.790,0.310,0.246,20.691,-9.094,-4.883
-0.790,0.312,0.294,16.785,-2.686,-6.165
-0.800,0.314,0.352,13.733,1.648,-7.446
-0.811,0.336,0.421,12.878,1.892,-8.545
-0.821,0.367,0.477,14.160,-1.648,-8.301
-0.825,0.388,0.492,15.686,-8.240,-5.676
-0.817,0.393,0.461,17.456,-16.113,-2.563
-0.800,0.394,0.396,19.226,-20.691,0.061
-0.794,0.376,0.325,18.799,-18.921,1.343
-0.800,0.353,0.274,16.357,-11.353,1.038
-0.803,0.328,0.275,13.672,-2.563,-0.305
-0.810,0.314,0.332,12.024,5.371,-2.014
-0.833,0.311,0.417,10.620,10.437,-3.174
-0.851,0.301,0.481,9.827,9.216,-3.479
-0.870,0.314,0.522,11.230,4.089,-3.967
-0.889,0.334,0.542,14.465,-2.136,-4.761
-0.883,0.356,0.528,16.663,-8.667,-5.554
-0.871,0.381,0.489,15.869,-14.099,-6.409
-0.852,0.391,0.448,11.108,-15.625,-6.775
-0.842,0.383,0.407,4.028,-12.878,-7.019

-2.079,0.294,0.213,-23.193,56.213,53.406
-2.316,0.251,0.092,-33.203,55.054,45.044
-2.587,0.243,-0.075,-42.114,56.580,33.813
-2.854,0.267,-0.315,-47.058,62.195,23.682
-3.080,0.279,-0.556,-41.809,77.576,18.066
-3.122,0.320,-0.670,-15.198,105.835,18.860
-2.941,0.330,-0.615,35.828,144.226,27.527
-2.720,0.336,-0.465,103.638,184.875,44.250
-2.511,0.303,-0.293,174.438,219.604,66.528
-2.408,0.266,-0.180,234.497,237.671,92.651
-2.761,0.286,-0.198,279.480,236.511,118.408
-3.345,0.337,-0.480,311.584,224.670,157.288
-3.934,0.277,-0.848,322.815,191.040,210.083
-4.000,0.010,-1.220,307.190,137.390,255.493
-4.000,-0.501,-1.589,260.376,86.121,270.325
-3.709,-1.156,-1.930,190.247,48.706,245.056
-3.007,-1.725,-2.265,117.310,35.889,185.547
-2.168,-2.033,-2.401,85.754,55.664,116.699
-0.932,-2.308,-2.234,108.032,95.642,64.453
0.787,-2.452,-1.709,151.001,140.442,27.588
2.862,-2.042,-1.052,163.574,178.162,-15.015
4.000,-1.609,-0.231,112.427,216.064,-72.876
4.000,-1.504,0.560,9.399,268.799,-134.399
4.000,-0.816,1.545,-97.412,340.759,-233.337
4.000,0.688,3.110,-137.878,402.893,-342.041
4.000,2.937,3.997,-88.135,414.856,-382.019
4.000,4.000,4.000,27.039,442.322,-348.755
4.000,4.000,4.000,131.165,408.020,-219.055
2.861,4.000,4.000,179.993,242.126,-37.842
2.842,3.718,4.000,103.027,-44.617,135.559
4.000,0.999,2.646,-92.834,-365.417,237.671
4.000,-1.300,0.467,-250.549,-533.386,260.803
4.000,-2.416,-0.546,-231.140,-482.849,256.653
4.000,-2.510,-0.408,-49.622,-332.581,224.426
3.110,-1.952,0.067,117.676,-240.845,174.377
2.267,-1.220,0.358,163.879,-210.815,113.708
1.502,-0.622,0.451,93.079,-206.177,73.059
0.798,-0.636,0.315,-18.066,-206.604,67.627
0.226,-0.917,0.125,-112.610,-208.740,70.068
-0.190,-1.173,0.013,-153.687,-208.557,64.270
-0.521,-1.338,-0.064,-140.564,-197.205,56.274
-0.841,-1.298,-0.107,-97.717,-176.208,38.330
-1.075,-1.150,-0.229,-52.307,-149.963,13.428
-1.395,-0.924,-0.418,-25.879,-121.460,-15.930
-1.934,-0.598,-0.570,-25.818,-86.182,-51.147
-2.394,-0.164,-0.444,-45.898,-51.880,-84.656
-2.530,0.141,-0.272,-77.637,-42.175,-104.919
-2.524,0.293,-0.174,-109.131,-58.105,-111.511
-2.504,0.251,-0.123,-129.333,-82.947,-108.215
-2.335,0.032,-0.091,-129.944,-105.225,-99.670
-2.077,-0.221,-0.108,-117.249,-118.774,-100.342
-1.786,-0.260,-0.210,-104.309,-119.385,-108.704
-1.658,-0.208,-0.261,-90.515,-99.854,-116.638
-1.535,-0.064,-0.160,-78.430,-68.604,-120.728
-1.469,0.073,0.034,-70.190,-43.396,-117.920
-1.407,0.207,0.210,-61.279,-26.001,-107.361
-1.411,0.353,0.394,-48.584,-14.343,-96.130
-1.395,0.479,0.506,-36.682,-12.085,-80.688
-1.325,0.549,0.585,-30.334,-19.043,-62.317
-1.229,0.509,0.651,-25.757,-24.414,-45.837
-1.178,0.407,0.670,-22.156,-19.226,-32.776
-1.201,0.251,0.649,-18.738,-6.653,-25.085
-1.257,0.111,0.673,-9.033,8.667,-25.330
-1.285,0.072,0.710,2.686,19.409,-31.128
-1.301,0.072,0.696,9.338,21.301,-37.415
-1.280,0.106,0.649,6.775,17.395,-45.654
-1.257,0.194,0.606,-1.892,12.878,-56.641
-1.250,0.311,0.585,-11.902,8.667,-66.284
-1.233,0.441,0.599,-19.714,0.427,-69.092
-1.201,0.528,0.609,-21.423,-11.780,-62.744
-1.142,0.557,0.573,-16.357,-25.024,-50.293
-1.094,0.547,0.479,-8.362,-31.677,-37.842
-1.055,0.516,0.388,-1.831,-30.640,-27.893
-1.019,0.479,0.349,2.380,-24.475,-21.423
-0.992,0.405,0.347,3.479,-16.541,-18.616
-0.983,0.317,0.354,3.296,-8.972,-18.250
-0.959,0.285,0.394,4.822,-2.808,-20.020
-0.949,0.324,0.492,4.150,-1.160,-21.912
-0.949,0.331,0.582,-0.671,-6.409,-20.081
-0.954,0.309,0.636,-4.272,-18.311,-16.113
-0.927,0.308,0.643,-0.427,-32.715,-12.329
-0.891,0.330,0.579,8.728,-42.603,-9.155
-0.855,0.334,0.501,15.808,-44.250,-6.226
-0.818,0.298,0.426,16.052,-39.734,-5.005
-0.800,0.227,0.382,11.230,-29.968,-6.653
-0.781,0.183,0.404,7.019,-17.761,-11.353
-0.780,0.197,0.512,4.761,-6.958,-16.418
-0.802,0.241,0.682,3.113,-3.845,-18.738
-0.828,0.226,0.761,2.869,-11.597,-16.113
-0.829,0.209,0.735,6.165,-27.222,-12.939
-0.802,0.211,0.654,14.832,-40.283,-11.536
-0.782,0.245,0.550,25.696,-45.410,-10.925
-0.759,0.320,0.458,33.142,-41.016,-10.193
-0.741,0.375,0.405,31.860,-28.931,-6.958
-0.732,0.348,0.403,20.142,-15.503,-2.441
-0.739,0.299,0.443,5.310,-5.249,0.671
-0.755,0.226,0.498,-6.470,0.061,1.709
-0.758,0.151,0.537,-14.465,-1.221,-0.671
-0.770,0.124,0.536,-16.052,-5.493,-6.226
-0.785,0.149,0.521,-10.925,-10.742,-13.306
-0.774,0.208,0.513,-1.221,-16.235,-17.944
-0.770,0.270,0.493,9.155,-21.301,-18.066
-0.746,0.327,0.428,17.273,-23.743,-13.672
-0.742,0.354,0.345,22.278,-18.860,-6.531
-0.749,0.351,0.334,23.132,-5.493,1.587
-0.784,0.324,0.393,20.386,9.399,8.179
-0.802,0.312,0.494,15.503,21.667,10.498
-0.841,0.324,0.627,9.399,26.855,10.071
-0.867,0.330,0.727,2.747,23.376,8.850
-0.882,0.324,0.755,-2.075,12.390,6.653
-0.880,0.331,0.745,-2.869,0.854,2.563
-0.866,0.355,0.716,0.000,-5.249,-2.075
-0.852,0.386,0.687,5.188,-7.263,-4.517
-0.842,0.431,0.647,9.155,-5.859,-4.639
-0.833,0.439,0.633,9.521,-1.953,-1.587
-0.828,0.409,0.642,6.653,2.686,3.174
-0.822,0.375,0.661,3.174,6.226,6.348
-0.817,0.356,0.676,-0.549,6.348,6.470
-0.808,0.340,0.688,-5.066,2.930,5.493

-2.489,-0.051,0.184,-17.883,91.980,99.121
-2.747,-0.053,0.054,-15.564,101.624,102.295
-2.964,-0.008,-0.070,-2.380,116.821,102.478
-3.001,0.118,-0.133,26.184,137.268,101.379
-2.953,0.265,-0.155,68.298,163.086,105.042
-2.854,0.314,-0.152,114.380,184.448,116.821
-2.834,0.262,-0.121,162.476,197.388,135.742
-2.816,0.183,-0.112,209.473,204.590,155.945
-2.782,0.111,-0.163,243.835,205.200,172.852
-2.739,-0.033,-0.252,259.399,197.388,189.026
-2.692,-0.239,-0.219,258.606,182.190,199.158
-2.753,-0.531,-0.221,237.732,156.494,197.632
-2.501,-0.935,-0.365,193.787,116.211,175.903
-1.935,-1.217,-0.646,137.878,71.899,134.399
-1.049,-1.418,-0.942,101.501,44.250,90.393
0.113,-1.730,-1.049,106.995,51.575,60.486
1.444,-1.857,-0.792,131.958,86.304,34.058
2.472,-1.578,-0.439,138.428,122.131,1.526
3.486,-1.185,-0.039,108.704,164.612,-23.804
4.000,-0.656,0.386,35.706,212.769,-59.631
4.000,-0.150,1.053,-84.656,251.038,-128.418
4.000,0.395,1.808,-212.341,270.386,-225.647
4.000,1.152,2.281,-275.269,252.686,-313.171
4.000,2.125,2.320,-228.333,213.867,-342.285
4.000,3.173,2.093,-107.971,179.687,-304.199
3.737,3.977,1.983,7.629,137.390,-219.177
2.763,4.000,2.033,68.848,88.501,-116.333
2.242,3.985,2.105,60.425,9.705,1.038
2.578,2.717,1.883,-14.893,-113.220,120.483
3.411,1.041,1.442,-121.704,-233.826,197.571
3.816,-0.260,1.025,-193.237,-287.415,219.482
3.629,-1.006,0.812,-178.101,-269.653,211.426
3.087,-1.239,0.857,-84.045,-227.844,193.176
2.515,-1.191,0.945,34.546,-206.970,179.565
2.074,-0.905,0.945,118.347,-210.876,160.828
1.725,-0.564,0.847,139.832,-218.689,134.888
1.346,-0.354,0.745,108.093,-217.590,108.398
1.031,-0.272,0.637,39.978,-211.609,84.351
0.693,-0.312,0.576,-38.025,-198.059,62.256
0.328,-0.455,0.544,-100.525,-180.054,44.006
0.017,-0.580,0.530,-131.348,-161.316,30.090
-0.333,-0.704,0.473,-129.700,-142.334,17.761
-0.675,-0.800,0.331,-110.901,-123.535,4.639
-0.974,-0.723,0.229,-88.989,-106.567,-15.259
-1.375,-0.560,0.147,-72.510,-88.562,-39.368
-1.666,-0.374,0.131,-68.054,-74.463,-53.955
-1.712,-0.244,0.181,-68.970,-65.369,-57.495
-1.695,-0.167,0.277,-66.956,-55.542,-54.199
-1.743,-0.142,0.387,-59.937,-45.166,-45.898
-1.785,-0.219,0.451,-50.110,-40.771,-32.776
-1.775,-0.364,0.452,-41.870,-41.443,-23.437
-1.753,-0.454,0.418,-38.757,-42.053,-30.151
-1.694,-0.458,0.346,-44.128,-40.039,-50.964
-1.648,-0.381,0.321,-60.303,-37.598,-75.928
-1.575,-0.290,0.330,-82.764,-35.461,-96.680
-1.480,-0.216,0.372,-103.271,-36.133,-112.610
-1.401,-0.127,0.424,-109.497,-35.645,-123.169
-1.389,-0.038,0.475,-92.163,-30.579,-125.793
-1.358,0.075,0.542,-56.519,-26.733,-118.225
-1.353,0.109,0.588,-17.090,-26.184,-100.647
-1.348,0.095,0.640,14.526,-26.917,-79.468
-1.323,0.070,0.680,31.189,-33.142,-66.101
-1.248,0.039,0.639,26.489,-45.898,-62.805
-1.196,0.051,0.514,2.014,-58.716,-70.251
-1.148,0.045,0.427,-30.701,-64.575,-85.693
-1.126,0.030,0.317,-62.317,-63.354,-103.943
-1.149,0.010,0.286,-82.764,-55.725,-118.225
-1.168,0.004,0.318,-80.688,-44.678,-122.437
-1.179,0.042,0.394,-53.528,-31.067,-115.356
-1.183,0.098,0.464,-12.695,-19.958,-98.328
-1.183,0.161,0.529,24.963,-16.174,-77.332
-1.187,0.231,0.591,48.279,-19.104,-60.303
-1.168,0.289,0.631,53.711,-26.489,-51.819
-1.145,0.332,0.593,41.748,-36.377,-49.133
-1.101,0.399,0.547,21.912,-44.861,-50.842
-1.077,0.438,0.504,6.042,-45.166,-57.129
-1.039,0.448,0.456,-7.202,-39.734,-59.265
-1.000,0.417,0.426,-15.991,-36.194,-56.335
-0.973,0.371,0.428,-15.442,-30.945,-49.133
-0.958,0.355,0.489,-4.517,-25.574,-39.734
-0.942,0.350,0.563,11.230,-24.719,-28.198
-0.933,0.338,0.593,25.452,-29.724,-16.052
-0.915,0.329,0.572,32.959,-37.720,-7.080
-0.891,0.319,0.531,31.860,-44.556,-3.174
-0.865,0.281,0.468,22.095,-49.438,-2.563
-0.861,0.257,0.414,9.399,-48.279,-6.226
-0.855,0.227,0.384,-0.793,-39.917,-12.695
-0.848,0.190,0.380,-7.141,-28.931,-18.982
-0.844,0.208,0.437,-6.897,-16.113,-23.315
-0.849,0.278,0.570,-1.038,-6.287,-22.949
-0.877,0.306,0.668,5.371,-5.188,-16.663
-0.900,0.303,0.690,11.475,-12.451,-8.423
-0.915,0.304,0.646,14.099,-22.522,-3.906
-0.922,0.312,0.593,13.123,-28.931,-4.272
-0.908,0.323,0.534,8.301,-31.738,-7.202
-0.891,0.335,0.472,0.610,-30.457,-11.169
-0.868,0.337,0.421,-6.775,-24.170,-14.587
-0.847,0.348,0.404,-12.512,-14.771,-16.174
-0.831,0.357,0.433,-16.418,-6.287,-14.465
-0.833,0.343,0.489,-16.052,-1.160,-9.094
-0.838,0.319,0.547,-9.155,0.183,-2.197
-0.848,0.291,0.572,1.221,-2.441,4.333
-0.847,0.288,0.567,10.498,-6.897,7.751
-0.839,0.306,0.550,13.306,-10.559,6.775
-0.823,0.329,0.541,9.583,-12.268,3.784
-0.802,0.348,0.539,1.770,-11.230,1.709
-0.796,0.311,0.533,-7.324,-8.057,1.770
-0.799,0.280,0.556,-12.451,-3.967,2.258
-0.798,0.272,0.583,-11.292,-0.122,3.418
-0.794,0.272,0.612,-6.592,1.648,5.188
-0.798,0.258,0.630,-1.160,0.977,7.019
-0.798,0.252,0.638,5.066,-2.075,7.080
-0.790,0.265,0.626,9.888,-5.859,4.639
-0.777,0.306,0.614,10.620,-10.254,0.854
-0.765,0.344,0.594,6.287,-13.306,-2.625
-0.760,0.364,0.557,-1.831,-14.771,-4.333
-0.757,0.379,0.525,-10.620,-13.672,-4.639
-0.761,0.362,0.505,-18.311,-11.169,-3.357
-0.753,0.346,0.501,-20.630,-8.911,-1.160

-2.493,-0.184,-0.333,12.695,110.596,164.612
-2.566,-0.123,-0.371,31.189,124.634,157.837
-2.656,0.043,-0.344,52.795,143.250,150.818
-2.709,0.186,-0.333,77.454,162.354,154.358
-2.665,0.136,-0.305,102.112,175.354,170.288
-2.590,-0.039,-0.252,134.521,185.974,185.242
-2.585,-0.197,-0.305,167.969,197.449,193.481
-2.516,-0.307,-0.460,185.730,206.604,187.561
-2.371,-0.378,-0.590,181.763,215.332,167.175
-2.179,-0.454,-0.618,168.701,229.004,142.456
-1.918,-0.594,-0.516,160.767,244.751,121.887
-1.643,-0.731,-0.251,162.048,255.127,101.868
-1.344,-0.816,-0.029,163.147,250.366,81.421
-0.838,-0.858,0.058,154.297,226.318,62.927
-0.092,-0.948,0.072,139.526,191.467,44.373
0.855,-0.912,0.054,129.395,158.386,25.757
1.955,-0.712,-0.041,123.352,133.545,16.174
3.153,-0.554,-0.058,114.014,136.841,18.982
4.000,-0.534,0.448,82.275,185.181,4.761
4.000,-0.153,1.216,15.869,252.075,-69.336
4.000,0.586,1.924,-53.528,298.828,-185.974
4.000,1.208,2.474,-90.210,288.635,-246.948
4.000,1.638,2.563,-84.961,236.877,-239.685
3.719,2.165,2.427,-66.772,181.641,-215.881
2.955,2.775,2.163,-78.308,114.929,-193.909
2.417,3.213,1.900,-108.582,44.983,-160.034
2.134,3.199,1.699,-130.798,-22.705,-95.459
2.176,2.551,1.503,-135.986,-92.041,-1.587
2.501,1.544,1.271,-131.287,-157.898,86.914
2.837,0.580,1.022,-122.803,-205.017,138.184
2.918,-0.100,0.852,-99.731,-224.182,155.212
2.780,-0.423,0.795,-51.392,-221.436,150.574
2.555,-0.478,0.800,6.653,-216.187,133.911
2.322,-0.401,0.771,55.786,-220.520,117.920
2.048,-0.244,0.788,84.595,-229.004,101.624
1.797,-0.126,0.760,84.229,-237.671,86.304
1.539,-0.088,0.651,55.054,-237.610,67.322
1.203,-0.131,0.549,8.240,-226.074,47.668
0.894,-0.134,0.498,-35.095,-208.130,31.555
0.509,-0.136,0.494,-66.345,-185.303,22.339
0.135,-0.188,0.487,-84.290,-162.415,18.372
-0.179,-0.190,0.493,-92.529,-145.752,15.564
-0.524,-0.212,0.492,-96.375,-132.568,13.977
-0.819,-0.314,0.448,-101.196,-122.742,13.733
-1.048,-0.414,0.428,-110.596,-114.563,8.667
-1.309,-0.487,0.468,-116.211,-101.379,-1.221
-1.579,-0.549,0.517,-111.206,-85.938,-9.949
-1.782,-0.498,0.587,-95.215,-78.186,-16.052
-1.896,-0.454,0.552,-76.233,-81.909,-15.503
-1.883,-0.404,0.422,-69.458,-96.680,-8.545
-1.825,-0.385,0.212,-78.125,-112.122,-5.554
-1.760,-0.358,-0.008,-98.633,-120.239,-10.803
-1.705,-0.383,-0.176,-124.390,-114.563,-23.560
-1.620,-0.436,-0.196,-145.935,-96.191,-32.898
-1.552,-0.575,-0.089,-151.184,-66.467,-40.222
-1.528,-0.667,0.157,-135.132,-30.640,-45.166
-1.535,-0.635,0.436,-105.286,-5.920,-51.025
-1.493,-0.523,0.657,-77.576,-3.235,-54.138
-1.472,-0.380,0.777,-58.411,-19.897,-59.998
-1.335,-0.271,0.718,-54.443,-47.913,-68.970
-1.210,-0.144,0.501,-62.500,-71.716,-86.182
-1.119,-0.005,0.280,-73.242,-75.256,-107.239
-1.060,0.148,0.104,-81.360,-63.232,-120.728
-1.043,0.206,0.057,-82.153,-38.635,-119.141
-1.083,0.132,0.173,-72.876,-7.690,-102.356
-1.135,-0.011,0.366,-54.443,14.282,-77.209
-1.190,-0.149,0.562,-28.442,22.095,-52.307
-1.231,-0.259,0.694,1.831,16.113,-36.316
-1.244,-0.279,0.744,28.931,0.793,-33.691
-1.218,-0.190,0.714,45.288,-16.113,-44.617
-1.148,-0.022,0.645,44.800,-30.212,-63.721
-1.093,0.141,0.548,29.541,-36.560,-84.290
-1.079,0.296,0.460,7.385,-35.034,-99.731
-1.061,0.439,0.447,-7.141,-29.053,-105.408
-1.049,0.520,0.502,-10.681,-22.766,-98.999
-1.057,0.512,0.579,-5.554,-21.790,-81.238
-1.058,0.423,0.602,7.812,-25.757,-58.655
-1.043,0.325,0.598,27.466,-31.311,-41.016
-1.021,0.269,0.597,42.908,-36.194,-32.593
-1.002,0.238,0.572,46.753,-42.175,-31.128
-0.972,0.226,0.519,40.405,-48.523,-35.095
-0.966,0.221,0.435,27.893,-50.110,-42.847
-0.946,0.231,0.364,13.794,-48.096,-51.392
-0.922,0.269,0.317,5.005,-41.443,-58.594
-0.897,0.351,0.320,3.174,-31.311,-61.340
-0.886,0.430,0.357,5.676,-22.400,-57.251
-0.873,0.457,0.400,10.315,-17.456,-45.959
-0.871,0.450,0.439,16.724,-17.334,-31.067
-0.875,0.401,0.475,25.269,-20.813,-15.991
-0.869,0.331,0.480,33.203,-25.024,-4.089
-0.861,0.257,0.460,37.109,-27.344,2.136
-0.862,0.193,0.435,35.400,-26.855,1.404
-0.864,0.156,0.417,28.992,-24.353,-5.554
-0.866,0.128,0.390,20.691,-20.264,-16.357
-0.851,0.160,0.380,14.099,-15.991,-28.198
-0.841,0.255,0.416,11.353,-10.498,-36.316
-0.849,0.332,0.457,9.644,-7.263,-35.950
-0.860,0.390,0.510,10.376,-8.118,-28.992
-0.877,0.421,0.541,15.320,-9.827,-19.226
-0.902,0.422,0.548,20.081,-13.611,-9.399
-0.907,0.403,0.536,21.729,-17.090,-4.028
-0.911,0.382,0.507,19.409,-18.005,-3.540
-0.900,0.363,0.473,13.367,-17.273,-6.775
-0.887,0.360,0.440,5.981,-14.404,-12.146
-0.862,0.364,0.427,0.427,-10.620,-16.663
-0.833,0.381,0.440,-2.197,-7.629,-18.921
-0.818,0.401,0.464,-1.648,-5.859,-17.639
-0.806,0.405,0.486,1.526,-4.761,-12.817
-0.801,0.396,0.497,6.348,-3.845,-6.836
-0.797,0.390,0.505,10.132,-3.784,-2.075
-0.784,0.375,0.500,10.254,-4.028,1.221
-0.777,0.370,0.480,6.714,-4.333,2.014
-0.773,0.365,0.467,1.770,-3.662,1.343
-0.769,0.364,0.464,-2.197,-1.648,0.000
-0.772,0.374,0.479,-3.662,0.977,-0.977
-0.780,0.392,0.517,-2.563,3.723,-1.404
-0.788,0.387,0.544,-0.488,3.601,-0.061
-0.789,0.387,0.553,1.526,0.793,0.793
-0.782,0.409,0.550,2.319,-2.258,0.854

-2.503,0.111,0.176,35.095,29.541,27.832
-2.671,0.198,0.101,25.696,34.302,27.161
-2.828,0.278,-0.004,19.531,45.776,31.433
-2.866,0.316,-0.121,17.395,60.120,39.612
-2.907,0.316,-0.250,26.367,78.552,50.415
-2.930,0.292,-0.334,53.406,102.356,63.110
-2.872,0.281,-0.307,93.628,126.892,74.890
-2.761,0.258,-0.253,134.216,148.193,82.275
-2.682,0.237,-0.246,165.833,161.682,82.397
-2.620,0.305,-0.231,185.425,166.321,77.576
-2.593,0.414,-0.233,193.970,164.124,73.669
-2.541,0.481,-0.265,199.280,157.959,81.299
-2.356,0.383,-0.293,209.839,151.978,107.117
-2.046,0.137,-0.319,226.929,146.240,138.733
-1.688,-0.143,-0.350,237.610,140.442,152.527
-1.258,-0.341,-0.396,229.858,138.489,136.902
-0.800,-0.373,-0.386,203.613,140.991,99.609
-0.369,-0.279,-0.217,172.363,147.583,61.279
0.087,-0.245,0.003,147.583,147.949,42.175
0.737,-0.364,0.135,128.174,134.216,41.809
1.362,-0.465,0.180,107.239,113.464,42.725
1.856,-0.518,0.216,84.534,94.727,42.603
2.561,-0.575,0.274,58.350,91.492,46.936
3.255,-0.575,0.364,22.461,114.319,46.143
3.766,-0.490,0.601,-21.790,159.485,26.611
4.000,-0.349,1.085,-69.275,206.116,-10.742
4.000,-0.176,1.551,-109.619,231.628,-61.829
4.000,0.217,1.932,-121.826,240.540,-120.422
3.408,0.834,2.201,-95.825,237.122,-166.626
2.786,1.484,2.337,-51.208,202.332,-172.241
2.299,1.972,2.312,-8.850,141.602,-136.719
1.881,2.265,2.161,10.376,75.317,-85.205
1.666,2.232,1.906,-2.502,-1.587,-29.846
1.764,1.752,1.519,-46.570,-88.318,28.992
2.111,0.981,1.134,-107.849,-167.908,81.421
2.465,0.193,0.836,-153.381,-218.994,113.159
2.536,-0.367,0.703,-154.602,-228.638,125.854
2.456,-0.599,0.756,-103.088,-209.961,123.413
2.232,-0.550,0.872,-21.729,-190.002,114.746
2.017,-0.301,1.035,53.223,-185.120,105.042
1.828,0.019,1.157,96.680,-197.205,95.398
1.701,0.251,1.141,95.886,-213.928,87.158
1.574,0.355,1.024,51.941,-226.746,76.355
1.406,0.371,0.901,-18.127,-226.318,62.866
1.198,0.269,0.810,-87.830,-210.022,50.720
0.920,0.126,0.730,-135.803,-183.899,41.138
0.640,0.026,0.711,-156.494,-156.860,34.790
0.313,-0.093,0.667,-147.156,-135.925,32.532
-0.002,-0.100,0.644,-113.892,-120.178,33.752
-0.361,-0.124,0.594,-73.547,-107.117,37.109
-0.576,-0.141,0.524,-47.302,-97.534,40.955
-0.815,-0.118,0.500,-44.067,-90.332,36.072
-1.109,-0.125,0.470,-65.002,-83.557,25.146
-1.377,-0.235,0.402,-101.929,-83.435,13.672
-1.505,-0.373,0.305,-139.893,-88.623,0.732
-1.639,-0.490,0.170,-164.612,-88.196,-12.573
-1.730,-0.609,0.065,-171.570,-75.928,-24.902
-1.749,-0.640,0.035,-161.743,-56.274,-33.508
-1.821,-0.607,0.100,-139.221,-27.710,-43.579
-1.912,-0.461,0.283,-117.065,-5.127,-53.955
-1.946,-0.300,0.444,-106.873,-5.432,-61.707
-1.896,-0.161,0.484,-114.563,-26.550,-72.754
-1.815,-0.012,0.447,-132.874,-54.810,-92.285
-1.715,0.070,0.359,-151.062,-76.111,-114.441
-1.619,0.051,0.282,-159.241,-80.750,-127.197
-1.546,-0.052,0.274,-149.475,-66.284,-128.662
-1.449,-0.147,0.325,-127.869,-41.870,-119.934
-1.430,-0.201,0.429,-100.464,-13.306,-109.192
-1.438,-0.188,0.610,-73.364,7.141,-101.929
-1.434,-0.174,0.732,-52.795,9.216,-98.999
-1.460,-0.120,0.755,-36.804,-3.418,-102.173
-1.416,-0.009,0.662,-25.024,-24.231,-108.948
-1.347,0.135,0.497,-21.423,-46.204,-114.929
-1.277,0.306,0.345,-25.085,-59.326,-118.713
-1.208,0.460,0.249,-30.701,-60.486,-117.676
-1.183,0.544,0.219,-34.546,-52.551,-108.643
-1.171,0.549,0.250,-30.762,-39.795,-91.614
-1.182,0.510,0.314,-15.869,-28.076,-69.275
-1.191,0.455,0.399,9.766,-19.348,-42.664
-1.197,0.354,0.461,41.565,-14.221,-17.090
-1.188,0.279,0.489,66.162,-15.991,-0.305
-1.149,0.270,0.502,75.745,-23.437,3.601
-1.096,0.320,0.513,67.566,-33.264,-2.075
-1.034,0.362,0.493,45.959,-44.800,-12.024
-0.975,0.397,0.452,22.156,-54.504,-23.193
-0.932,0.430,0.387,6.592,-57.556,-31.616
-0.882,0.462,0.320,2.197,-54.565,-35.461
-0.845,0.487,0.280,7.446,-46.509,-34.302
-0.833,0.486,0.288,20.691,-35.278,-28.137
-0.828,0.474,0.352,36.743,-24.902,-19.531
-0.844,0.478,0.437,49.561,-19.775,-11.597
-0.840,0.508,0.516,54.688,-19.592,-5.127
-0.834,0.514,0.573,49.927,-22.095,-0.122
-0.843,0.474,0.591,36.011,-25.330,4.150
-0.838,0.411,0.588,22.278,-27.710,3.418
-0.816,0.361,0.548,13.428,-28.137,-0.488
-0.791,0.340,0.500,8.728,-25.940,-4.761
-0.770,0.364,0.492,7.996,-19.409,-9.277
-0.775,0.404,0.531,10.193,-11.414,-11.658
-0.772,0.414,0.571,13.000,-6.348,-10.681
-0.772,0.414,0.605,14.832,-5.554,-8.179
-0.772,0.422,0.640,14.893,-8.179,-5.493
-0.772,0.400,0.642,12.634,-13.611,-3.052
-0.767,0.377,0.615,9.949,-19.226,-1.953
-0.756,0.358,0.565,8.423,-22.034,-2.747
-0.749,0.355,0.510,7.874,-21.912,-4.333
-0.739,0.367,0.469,8.606,-18.066,-6.226
-0.740,0.393,0.439,9.644,-12.085,-7.568
-0.750,0.413,0.429,10.315,-5.249,-8.667
-0.756,0.439,0.445,9.644,-0.671,-9.094
-0.763,0.460,0.469,7.446,1.221,-8.545
-0.762,0.456,0.495,5.676,0.854,-6.775
-0.759,0.433,0.500,4.944,-1.282,-4.272
-0.751,0.419,0.500,5.615,-3.906,-2.197
-0.740,0.423,0.491,6.897,-5.615,-1.221
-0.732,0.435,0.478,7.263,-5.676,-0.732
-0.728,0.445,0.473,6.470,-4.272,-0.366
-0.725,0.455,0.471,3.967,-2.197,-0.977
-0.718,0.443,0.462,0.671,-0.732,-1.770

-1.766,0.456,0.899,10.986,101.379,24.414
-1.929,0.490,0.997,3.113,113.586,17.517
-2.082,0.477,1.009,-5.310,119.507,18.616
-2.293,0.469,0.994,-11.353,129.150,24.719
-2.667,0.495,1.011,-15.442,136.414,40.100
-3.130,0.405,0.895,-18.494,134.094,66.467
-3.490,0.295,0.625,-25.146,126.953,90.088
-3.646,0.201,0.425,-27.100,128.845,96.924
-3.703,0.169,0.208,-15.320,143.127,94.299
-3.624,0.142,-0.080,11.902,164.062,100.403
-3.790,0.024,-0.417,56.396,182.495,127.625
-3.899,-0.190,-0.781,126.099,196.472,178.711
-4.000,-0.738,-1.172,230.713,195.374,253.540
-4.000,-1.499,-1.480,343.445,175.537,330.750
-4.000,-2.190,-1.768,421.509,137.268,366.394
-4.000,-2.655,-2.091,427.368,96.497,328.491
-3.701,-2.942,-2.482,369.446,79.224,233.643
-2.853,-3.193,-2.629,297.607,97.595,137.878
-1.227,-3.713,-2.323,251.282,148.437,67.139
0.862,-3.793,-1.538,234.314,218.872,-14.832
3.461,-2.730,-0.204,248.108,299.500,-128.418
4.000,-1.623,1.204,294.312,374.390,-208.618
4.000,-0.820,2.671,311.523,437.683,-238.892
4.000,0.125,3.045,214.722,404.907,-279.114
4.000,1.684,3.751,23.865,327.087,-378.296
4.000,3.786,2.816,-174.377,222.168,-478.455
4.000,4.000,2.404,-202.148,252.197,-521.790
3.966,4.000,1.917,-112.427,270.081,-400.818
2.069,4.000,1.901,-19.409,201.050,-177.429
2.103,4.000,2.418,27.527,68.359,84.045
3.752,3.362,2.513,-16.907,-121.216,314.392
4.000,-0.281,1.876,-117.737,-287.415,423.706
4.000,-2.457,1.136,-165.344,-334.473,415.344
4.000,-3.066,0.724,-108.398,-294.922,342.773
4.000,-2.922,0.594,36.377,-267.456,283.508
3.770,-2.584,0.387,176.819,-260.315,239.929
3.052,-1.908,0.212,203.186,-264.282,181.274
2.468,-1.456,0.052,119.507,-261.719,138.000
1.933,-1.527,-0.065,5.371,-242.981,126.038
1.389,-1.858,-0.109,-94.788,-209.290,116.699
0.832,-2.009,-0.065,-168.518,-169.739,86.121
0.301,-1.944,-0.003,-199.646,-132.446,45.654
-0.151,-1.762,0.152,-184.814,-101.624,13.123
-0.533,-1.534,0.276,-141.541,-83.313,-8.728
-0.841,-1.348,0.238,-95.581,-76.721,-27.710
-1.012,-1.097,0.100,-69.397,-80.933,-51.514
-1.164,-0.768,-0.046,-64.758,-88.806,-75.623
-1.350,-0.449,-0.133,-73.792,-89.539,-91.125
-1.533,-0.140,-0.030,-84.839,-88.257,-100.830
-1.785,0.111,0.072,-89.050,-92.346,-100.525
-1.949,0.176,0.084,-95.520,-104.370,-80.750
-1.966,0.092,0.023,-114.319,-123.047,-51.025
-1.978,-0.119,-0.034,-144.287,-140.015,-27.161
-1.943,-0.453,-0.001,-178.894,-147.888,-13.245
-1.711,-0.814,-0.063,-212.219,-150.513,-11.536
-1.548,-0.998,-0.199,-238.647,-141.724,-26.794
-1.425,-0.892,-0.240,-243.713,-118.835,-56.335
-1.392,-0.596,-0.115,-216.553,-93.872,-87.708
-1.332,-0.255,0.026,-167.053,-71.106,-109.985
-1.261,0.084,0.185,-110.352,-51.270,-121.826
-1.181,0.355,0.339,-61.768,-28.564,-117.920
-1.150,0.547,0.506,-25.269,-3.113,-107.849
-1.157,0.635,0.728,-2.380,18.677,-94.177
-1.138,0.573,0.976,7.385,34.119,-75.928
-1.152,0.414,1.113,3.357,42.847,-60.181
-1.237,0.262,1.217,-11.597,44.312,-55.237
-1.296,0.147,1.280,-29.114,35.767,-60.120
-1.346,0.106,1.296,-43.091,18.677,-72.510
-1.349,0.127,1.222,-51.086,-4.150,-85.388
-1.324,0.167,1.075,-53.589,-30.212,-92.407
-1.265,0.233,0.874,-47.119,-58.533,-92.102
-1.168,0.312,0.674,-31.677,-79.407,-87.585
-1.080,0.396,0.514,-14.954,-88.806,-78.491
-1.007,0.456,0.421,-2.197,-83.618,-66.528
-0.995,0.479,0.417,5.554,-65.063,-53.101
-1.002,0.485,0.508,9.827,-43.884,-38.635
-1.025,0.411,0.619,11.597,-28.259,-25.696
-1.039,0.302,0.685,12.024,-22.827,-17.761
-1.011,0.234,0.686,11.108,-27.588,-18.311
-0.979,0.239,0.664,7.385,-34.851,-26.245
-0.934,0.271,0.627,-3.052,-43.335,-36.804
-0.878,0.327,0.569,-16.846,-51.270,-46.570
-0.807,0.361,0.496,-27.954,-54.932,-52.734
-0.750,0.396,0.423,-32.410,-52.002,-52.429
-0.731,0.413,0.392,-27.954,-39.490,-44.556
-0.709,0.435,0.445,-14.954,-20.020,-29.968
-0.749,0.445,0.561,2.319,0.427,-12.939
-0.782,0.398,0.709,16.541,14.648,1.648
-0.808,0.330,0.824,22.156,13.428,11.780
-0.832,0.265,0.881,23.010,3.479,13.794
-0.848,0.243,0.881,22.034,-10.254,6.531
-0.841,0.272,0.830,17.212,-24.292,-5.920
-0.817,0.318,0.738,8.911,-34.424,-19.531
-0.792,0.374,0.637,-0.183,-38.391,-29.846
-0.770,0.422,0.560,-6.592,-34.729,-34.363
-0.751,0.465,0.537,-10.437,-25.696,-33.203
-0.766,0.493,0.593,-9.094,-14.709,-25.696
-0.795,0.485,0.676,-2.747,-6.226,-11.902
-0.825,0.443,0.745,7.690,-4.944,3.967
-0.827,0.380,0.767,19.104,-8.850,16.602
-0.836,0.318,0.755,26.367,-13.245,21.057
-0.829,0.271,0.722,26.062,-17.883,16.785
-0.812,0.260,0.665,18.921,-22.095,5.249
-0.787,0.284,0.604,9.949,-21.667,-8.484
-0.751,0.323,0.548,2.502,-17.212,-18.250
-0.732,0.374,0.527,-0.366,-10.498,-20.020
-0.720,0.406,0.544,1.770,-4.944,-14.160
-0.716,0.406,0.563,7.874,-3.723,-3.052
-0.707,0.371,0.563,14.587,-5.798,8.850
-0.702,0.309,0.531,20.142,-10.071,16.846
-0.690,0.280,0.507,24.109,-12.878,18.127
-0.688,0.260,0.479,24.597,-12.512,14.587
-0.679,0.266,0.447,23.254,-10.437,8.423
-0.672,0.278,0.424,21.729,-5.615,1.587
-0.665,0.286,0.443,21.301,0.122,-1.587
-0.673,0.324,0.504,22.766,6.287,-0.488
-0.671,0.322,0.576,24.170,7.629,5.188
-0.687,0.301,0.620,22.888,2.502,11.414
-0.692,0.262,0.615,18.433,-5.066,14.099

-2.389,-0.127,0.150,70.984,59.692,84.717
-2.427,-0.102,0.120,91.797,79.102,80.444
-2.418,-0.086,0.182,114.990,102.722,75.256
-2.334,0.020,0.419,134.155,122.375,70.923
-2.437,0.128,0.715,143.616,124.756,67.810
-2.581,0.124,0.793,134.827,100.891,68.542
-2.602,0.182,0.615,111.450,59.937,65.247
-2.553,0.255,0.375,86.121,22.034,61.951
-2.425,0.261,0.080,69.397,-4.883,68.665
-2.210,0.126,-0.212,74.585,-17.151,87.708
-1.933,-0.160,-0.415,106.079,-13.855,110.779
-1.648,-0.461,-0.548,149.658,0.671,119.812
-1.363,-0.621,-0.642,183.105,23.315,103.088
-1.071,-0.659,-0.719,191.467,51.575,72.266
-0.777,-0.643,-0.758,174.866,80.627,40.222
-0.450,-0.587,-0.738,144.714,107.361,12.146
-0.205,-0.445,-0.545,111.389,125.366,-6.409
0.186,-0.369,-0.300,77.698,124.817,-11.414
0.770,-0.374,-0.093,43.518,106.445,-11.047
1.614,-0.430,-0.047,13.062,87.280,-7.446
2.650,-0.681,0.095,-0.854,94.360,-5.981
3.868,-0.973,0.470,3.601,133.057,-17.944
4.000,-0.886,1.072,24.963,188.843,-54.382
4.000,-0.353,1.792,51.575,263.550,-109.802
4.000,0.478,2.579,58.167,331.299,-159.485
4.000,1.410,3.338,43.335,367.065,-187.073
3.164,2.201,3.865,15.076,364.624,-182.983
2.175,2.651,3.965,-21.362,298.950,-144.348
1.712,2.662,3.632,-53.772,178.223,-83.984
1.630,2.256,3.038,-73.486,36.743,-11.292
2.033,1.431,2.305,-84.167,-98.389,65.125
2.599,0.438,1.579,-96.924,-204.041,128.601
2.937,-0.404,1.103,-99.426,-251.709,157.043
2.859,-0.826,0.873,-77.332,-248.230,151.367
2.607,-0.964,0.685,-36.133,-227.661,124.634
2.204,-0.780,0.625,4.700,-208.618,98.572
1.776,-0.556,0.629,28.442,-197.205,86.487
1.432,-0.504,0.587,24.536,-197.998,83.069
1.139,-0.509,0.476,-1.526,-199.829,71.106
0.845,-0.486,0.320,-34.729,-193.237,50.659
0.532,-0.413,0.184,-59.143,-175.964,31.189
0.267,-0.328,0.115,-69.092,-151.733,18.799
-0.046,-0.288,0.118,-69.641,-122.253,15.320
-0.346,-0.374,0.144,-68.481,-91.553,14.038
-0.616,-0.459,0.220,-74.158,-63.965,4.578
-0.974,-0.471,0.267,-86.670,-41.138,-18.372
-1.323,-0.304,0.326,-99.670,-26.611,-45.898
-1.592,-0.068,0.471,-99.548,-23.560,-66.467
-1.706,0.045,0.543,-80.933,-34.424,-67.871
-1.608,0.112,0.556,-51.331,-52.246,-54.504
-1.520,0.148,0.458,-20.996,-66.528,-41.809
-1.412,0.129,0.314,-3.845,-66.101,-33.142
-1.338,0.120,0.203,-4.822,-51.025,-34.546
-1.352,0.165,0.207,-20.508,-25.269,-43.518
-1.412,0.175,0.256,-42.725,2.075,-49.927
-1.450,0.147,0.352,-64.392,21.362,-50.232
-1.474,0.134,0.478,-81.787,29.175,-44.312
-1.404,0.132,0.632,-90.698,25.330,-34.424
-1.355,0.092,0.775,-87.769,12.024,-23.193
-1.275,0.033,0.878,-74.524,-0.183,-10.559
-1.258,-0.083,0.932,-51.331,-6.042,-4.089
-1.248,-0.183,0.925,-25.879,-6.531,-10.254
-1.247,-0.140,0.912,-10.986,-7.141,-30.762
-1.257,-0.034,0.866,-16.235,-12.146,-55.054
-1.180,0.050,0.765,-41.748,-25.024,-72.693
-1.113,0.091,0.620,-72.998,-38.940,-84.778
-1.095,0.087,0.506,-92.529,-42.358,-92.468
-1.087,0.086,0.428,-94.238,-33.752,-96.252
-1.095,0.123,0.433,-78.979,-21.790,-97.412
-1.116,0.207,0.504,-51.392,-12.024,-92.896
-1.132,0.273,0.564,-20.996,-10.559,-79.590
-1.127,0.337,0.601,3.235,-16.968,-63.660
-1.097,0.385,0.600,14.343,-28.198,-50.537
-1.033,0.393,0.538,11.841,-36.987,-43.701
-1.002,0.387,0.427,-1.465,-34.668,-45.410
-1.022,0.358,0.349,-18.799,-20.264,-53.772
-1.044,0.312,0.394,-33.508,-0.244,-60.120
-1.077,0.243,0.525,-39.612,19.958,-61.096
-1.097,0.183,0.686,-35.889,32.715,-58.167
-1.106,0.162,0.839,-24.719,31.311,-52.490
-1.106,0.159,0.925,-10.559,18.005,-45.410
-1.095,0.180,0.929,0.427,-2.441,-39.612
-1.060,0.246,0.872,8.301,-21.973,-37.476
-1.027,0.324,0.793,11.414,-33.752,-36.377
-0.997,0.386,0.708,6.653,-39.246,-35.034
-0.973,0.406,0.598,-2.686,-39.856,-33.752
-0.948,0.386,0.509,-11.292,-34.729,-33.386
-0.903,0.381,0.477,-15.991,-29.053,-33.020
-0.863,0.391,0.499,-16.479,-24.231,-31.616
-0.842,0.379,0.562,-14.526,-22.949,-27.222
-0.840,0.374,0.610,-10.437,-28.503,-21.729
-0.824,0.389,0.630,-3.052,-36.987,-16.846
-0.811,0.411,0.618,4.944,-43.762,-12.756
-0.798,0.417,0.584,8.728,-49.500,-8.362
-0.781,0.414,0.526,7.446,-53.650,-5.737
-0.755,0.396,0.454,2.686,-53.406,-4.333
-0.734,0.360,0.383,-2.075,-47.729,-3.174
-0.713,0.321,0.357,-3.967,-36.011,-2.136
-0.710,0.303,0.419,-2.747,-20.447,-0.671
-0.730,0.312,0.554,-1.099,-7.202,1.404
-0.757,0.295,0.703,-0.061,-4.028,4.883
-0.787,0.269,0.777,1.648,-10.681,7.751
-0.808,0.272,0.781,5.432,-21.179,7.080
-0.819,0.309,0.742,6.165,-29.785,2.747
-0.815,0.354,0.703,2.136,-34.912,-3.357
-0.811,0.387,0.658,-2.563,-35.461,-7.874
-0.798,0.400,0.609,-4.761,-31.006,-10.315
-0.786,0.402,0.583,-3.845,-23.315,-10.864
-0.778,0.396,0.603,-0.061,-15.015,-7.324
-0.778,0.376,0.644,5.615,-8.118,-2.441
-0.777,0.348,0.674,9.521,-5.798,2.380
-0.770,0.328,0.683,11.414,-7.812,4.944
-0.759,0.328,0.679,11.536,-12.085,5.188
-0.763,0.346,0.679,10.620,-16.846,3.784
-0.750,0.367,0.655,8.301,-22.461,2.869
-0.731,0.387,0.602,6.042,-28.564,2.625
-0.704,0.389,0.542,4.883,-31.433,2.747
-0.680,0.371,0.491,3.601,-29.724,2.869
-0.655,0.341,0.452,2.075,-25.696,2.563

-2.394,0.342,0.279,7.019,71.350,48.218
-2.967,0.410,0.107,-14.832,77.759,46.082
-3.589,0.612,-0.132,-61.218,82.825,38.574
-4.000,0.956,-0.343,-130.127,88.318,27.405
-4.000,1.188,-0.438,-202.698,102.295,16.052
-4.000,1.223,-0.526,-247.498,125.610,14.221
-4.000,1.214,-0.565,-214.233,172.302,57.617
-3.674,0.933,-0.276,-67.932,251.587,160.278
-3.369,0.233,0.089,132.690,324.219,306.763
-3.620,-0.793,0.176,310.913,341.309,463.318
-4.000,-2.161,-0.437,401.917,262.024,573.853
-4.000,-3.242,-1.468,376.770,115.112,566.467
-4.000,-3.263,-2.751,265.076,-10.193,419.678
-4.000,-3.170,-4.000,150.330,-57.983,254.944
-3.396,-3.788,-4.000,136.597,-21.729,183.350
-1.580,-4.000,-4.000,252.991,113.708,172.241
0.412,-4.000,-3.980,386.047,315.735,116.821
3.260,-3.129,-1.173,384.094,462.585,-10.498
4.000,-1.905,1.688,293.457,497.864,-135.742
4.000,-0.265,4.000,229.614,497.314,-227.600
4.000,1.984,4.000,156.799,506.653,-327.515
4.000,4.000,4.000,92.285,463.928,-429.810
4.000,4.000,4.000,77.393,399.109,-469.543
4.000,4.000,4.000,13.428,303.955,-349.243
4.000,4.000,4.000,-117.737,67.444,-124.023
4.000,4.000,3.060,-241.211,-179.016,125.305
4.000,1.240,0.919,-310.120,-349.609,298.096
4.000,-1.893,-0.328,-239.624,-383.362,363.892
4.000,-2.390,-0.043,-12.817,-312.073,356.079
4.000,-2.191,0.355,166.565,-273.132,316.101
3.513,-2.028,0.181,137.573,-286.743,236.511
2.632,-2.209,-0.377,-33.508,-290.344,144.287
1.832,-2.688,-0.746,-184.814,-258.362,87.524
0.922,-2.970,-0.602,-229.309,-199.951,52.979
-0.083,-3.024,-0.228,-184.448,-140.747,23.621
-0.687,-2.913,0.135,-116.638,-107.117,-0.305
-1.058,-2.693,0.371,-77.026,-98.145,-28.564
-1.329,-2.471,0.264,-78.430,-107.239,-70.923
-1.529,-2.049,-0.048,-98.938,-114.685,-123.657
-1.800,-1.419,-0.253,-102.478,-99.121,-171.997
-2.027,-0.690,-0.334,-87.952,-72.937,-203.003
-1.999,-0.019,-0.338,-80.017,-60.730,-218.750
-2.007,0.410,-0.292,-95.703,-54.138,-222.839
-2.127,0.501,-0.227,-134.766,-49.255,-213.928
-2.132,0.344,-0.147,-172.058,-53.040,-197.876
-2.103,0.239,-0.042,-174.927,-61.279,-180.725
-1.974,0.170,-0.035,-139.954,-64.514,-156.494
-1.653,0.118,-0.059,-92.712,-62.317,-129.150
-1.425,0.264,-0.142,-52.185,-39.124,-117.920
-1.306,0.571,-0.046,-29.846,7.141,-115.295
-1.304,0.641,0.266,-27.161,59.082,-99.976
-1.299,0.479,0.673,-33.569,96.558,-76.477
-1.343,0.362,1.125,-34.119,114.929,-60.547
-1.399,0.245,1.418,-22.156,110.474,-47.791
-1.396,0.185,1.518,-1.465,89.783,-33.569
-1.372,0.227,1.464,18.311,64.087,-24.780
-1.325,0.342,1.346,24.109,40.649,-22.949
-1.230,0.447,1.240,12.634,19.348,-26.733
-1.087,0.486,1.073,-9.155,2.502,-33.630
-0.994,0.534,0.867,-29.297,-3.479,-44.983
-0.932,0.604,0.716,-40.833,-2.319,-55.542
-0.860,0.649,0.677,-39.856,0.122,-57.556
-0.794,0.643,0.690,-28.931,0.549,-50.293
-0.800,0.576,0.720,-15.991,-1.282,-38.818
-0.796,0.496,0.750,-6.348,-5.615,-28.503
-0.824,0.427,0.797,-4.700,-12.329,-23.621
-0.844,0.382,0.835,-12.207,-22.156,-22.766
-0.833,0.346,0.838,-23.621,-34.058,-22.705
-0.807,0.338,0.793,-31.189,-43.274,-20.996
-0.786,0.351,0.742,-34.729,-46.692,-17.639
-0.748,0.352,0.723,-36.377,-45.410,-14.160
-0.717,0.312,0.728,-35.950,-41.992,-12.085
-0.691,0.294,0.750,-28.870,-38.452,-13.123
-0.688,0.328,0.763,-15.442,-36.072,-14.282
-0.667,0.374,0.761,-2.991,-38.208,-11.841
-0.655,0.412,0.753,2.197,-44.495,-7.629
-0.645,0.416,0.730,-0.732,-52.002,-4.333
-0.640,0.401,0.702,-10.071,-60.364,-2.991
-0.625,0.377,0.661,-20.752,-64.819,-2.808
-0.636,0.359,0.579,-28.809,-61.218,-3.174
-0.639,0.362,0.534,-32.715,-51.331,-3.174
-0.653,0.347,0.518,-31.860,-38.086,-2.747
-0.663,0.329,0.532,-27.466,-26.794,-1.404
-0.675,0.327,0.602,-18.921,-19.775,-0.793
-0.681,0.334,0.651,-10.315,-19.714,-0.732
-0.670,0.331,0.642,-5.737,-26.855,-1.648
-0.657,0.336,0.616,-5.310,-34.180,-4.272
-0.644,0.375,0.589,-7.446,-37.903,-8.179
-0.627,0.433,0.551,-13.550,-37.598,-11.230
-0.638,0.466,0.505,-22.888,-32.410,-12.024
-0.646,0.466,0.470,-29.297,-23.193,-10.742
-0.644,0.464,0.444,-28.748,-11.780,-7.324
-0.640,0.500,0.507,-21.912,0.244,-3.235
-0.667,0.487,0.610,-13.855,8.423,4.028
-0.668,0.436,0.688,-9.155,6.042,12.024
-0.665,0.357,0.685,-6.470,-2.747,14.282
-0.664,0.293,0.663,-6.104,-11.108,10.254
-0.653,0.291,0.623,-8.850,-16.357,0.854
-0.647,0.335,0.589,-15.503,-18.188,-7.690
-0.633,0.390,0.564,-21.912,-14.954,-13.184
-0.644,0.430,0.543,-23.865,-6.836,-14.160
-0.654,0.459,0.567,-21.729,2.441,-10.742
-0.674,0.484,0.631,-16.846,8.301,-5.188
-0.691,0.472,0.687,-12.878,7.690,2.075
-0.693,0.417,0.699,-10.437,0.916,9.216
-0.692,0.354,0.679,-8.179,-7.568,12.268
-0.690,0.317,0.646,-5.798,-13.062,8.179
-0.689,0.344,0.617,-5.920,-15.320,0.183
-0.685,0.395,0.600,-8.667,-15.442,-6.470
-0.683,0.428,0.597,-11.597,-12.085,-10.071
-0.678,0.451,0.588,-12.390,-8.362,-9.583
-0.672,0.467,0.599,-9.338,-4.089,-6.714
-0.672,0.465,0.625,-4.456,-0.305,-3.662
-0.672,0.451,0.659,-1.282,1.221,-0.244
-0.676,0.437,0.703,-0.427,-0.610,2.197
-0.669,0.433,0.717,-2.197,-6.226,3.235
-0.660,0.429,0.698,-7.019,-13.672,2.930
-0.649,0.433,0.664,-13.550,-19.775,0.549
-0.634,0.445,0.628,-18.188,-22.583,-3.052

-1.609,0.756,0.751,8.057,7.874,58.716
-1.734,0.719,0.821,15.991,1.282,75.684
-1.836,0.596,0.821,18.616,-10.071,91.553
-1.937,0.383,0.635,12.451,-26.123,103.882
-2.033,0.191,0.333,-5.737,-42.053,105.774
-2.198,0.098,0.035,-38.025,-48.706,94.849
-2.362,0.102,-0.235,-89.539,-43.030,73.181
-2.480,0.237,-0.491,-155.762,-32.471,47.485
-2.526,0.301,-0.627,-198.486,-14.099,31.921
-2.548,0.316,-0.739,-195.496,18.799,45.532
-2.649,0.261,-0.802,-133.240,65.613,96.313
-2.766,0.150,-0.767,-18.005,109.436,178.772
-2.852,0.030,-0.708,105.957,142.517,261.963
-2.846,-0.247,-0.753,190.918,158.813,325.134
-2.859,-0.749,-0.888,225.159,163.086,369.446
-3.030,-1.476,-1.283,226.868,156.921,397.644
-3.317,-2.415,-1.950,205.139,132.935,409.668
-3.306,-3.400,-2.780,169.128,98.511,388.489
-2.960,-4.000,-3.613,144.226,88.867,320.740
-2.273,-4.000,-4.000,149.292,132.019,226.196
-1.189,-4.000,-4.000,181.152,228.638,131.775
0.082,-4.000,-3.441,206.421,338.318,41.138
1.728,-3.579,-2.369,182.678,422.119,-65.186
3.808,-2.562,-0.578,121.033,492.065,-180.481
4.000,-1.677,1.476,84.839,525.818,-269.104
4.000,-0.626,3.477,115.234,532.104,-336.670
4.000,1.464,4.000,166.016,569.458,-420.410
4.000,3.997,4.000,171.570,582.458,-506.409
4.000,4.000,4.000,114.685,536.499,-532.227
4.000,4.000,4.000,6.897,456.238,-461.731
3.218,4.000,4.000,-57.739,263.733,-259.216
3.375,4.000,3.418,-64.209,29.907,22.339
4.000,3.302,2.298,-130.371,-194.641,246.582
4.000,-0.101,1.252,-219.727,-352.417,341.064
4.000,-2.098,0.339,-183.716,-391.663,354.919
4.000,-2.365,-0.027,-19.470,-340.210,314.209
3.891,-1.895,0.107,131.042,-291.443,253.235
2.827,-1.307,0.354,166.199,-257.446,193.481
2.094,-1.070,0.297,66.162,-246.338,136.658
1.550,-1.246,0.137,-84.900,-244.629,92.041
0.996,-1.546,-0.119,-195.862,-238.281,60.303
0.328,-1.653,-0.293,-223.022,-213.379,39.307
-0.382,-1.631,-0.326,-176.941,-171.997,31.738
-0.916,-1.445,-0.188,-106.262,-130.981,21.240
-1.282,-1.126,0.048,-54.321,-100.037,-1.465
-1.517,-0.867,0.218,-39.856,-83.496,-23.621
-1.819,-0.641,0.323,-58.960,-81.848,-41.626
-2.175,-0.526,0.215,-94.299,-92.773,-53.589
-2.381,-0.456,0.088,-132.812,-111.816,-67.017
-2.575,-0.422,-0.113,-170.654,-126.526,-85.754
-2.531,-0.500,-0.354,-210.083,-136.841,-110.046
-2.302,-0.542,-0.544,-235.596,-139.954,-141.296
-2.097,-0.423,-0.578,-215.027,-119.446,-168.579
-2.039,-0.151,-0.365,-148.743,-74.036,-176.392
-1.997,0.109,-0.027,-75.928,-31.189,-160.828
-1.905,0.296,0.242,-29.114,-12.146,-141.785
-1.836,0.432,0.424,-24.414,-15.564,-132.690
-1.664,0.470,0.440,-56.885,-38.208,-131.592
-1.485,0.461,0.424,-95.581,-57.373,-135.376
-1.365,0.452,0.430,-111.084,-62.134,-137.207
-1.265,0.410,0.482,-100.830,-57.983,-123.230
-1.205,0.355,0.562,-76.416,-47.180,-95.459
-1.203,0.309,0.656,-46.021,-30.823,-66.040
-1.231,0.253,0.724,-17.822,-15.869,-39.734
-1.232,0.214,0.761,-0.244,-13.062,-20.020
-1.223,0.179,0.730,4.456,-20.752,-10.437
-1.164,0.181,0.646,1.465,-33.142,-11.414
-1.104,0.233,0.544,-5.676,-42.053,-20.508
-1.026,0.294,0.466,-14.954,-45.227,-31.921
-0.990,0.336,0.404,-24.231,-44.250,-41.382
-0.917,0.382,0.408,-31.494,-41.321,-46.204
-0.888,0.420,0.445,-33.508,-36.621,-46.448
-0.866,0.451,0.469,-31.799,-33.875,-41.016
-0.857,0.484,0.472,-29.053,-33.447,-33.569
-0.856,0.527,0.501,-27.771,-31.982,-27.527
-0.857,0.541,0.539,-27.161,-30.396,-21.912
-0.864,0.500,0.537,-26.611,-30.762,-15.381
-0.872,0.477,0.520,-24.109,-32.593,-12.024
-0.842,0.495,0.502,-19.531,-30.029,-12.573
-0.819,0.535,0.535,-18.372,-27.466,-16.541
-0.812,0.565,0.576,-20.874,-22.888,-23.987
-0.817,0.569,0.642,-23.926,-19.714,-25.635
-0.828,0.543,0.689,-24.292,-23.376,-21.973
-0.824,0.508,0.677,-18.799,-31.860,-14.099
-0.813,0.465,0.615,-10.254,-38.513,-6.409
-0.816,0.426,0.524,-6.165,-40.894,-4.578
-0.819,0.417,0.461,-8.240,-40.222,-8.179
-0.820,0.426,0.418,-13.123,-36.133,-18.005
-0.811,0.461,0.383,-19.104,-28.931,-28.748
-0.800,0.554,0.417,-25.818,-23.071,-37.048
-0.780,0.648,0.501,-26.978,-19.531,-40.894
-0.769,0.690,0.558,-22.278,-20.264,-33.752
-0.773,0.657,0.574,-10.864,-22.766,-18.982
-0.779,0.598,0.556,4.883,-25.024,-3.662
-0.792,0.562,0.567,22.217,-24.780,6.897
-0.794,0.553,0.571,31.555,-25.330,13.428
-0.797,0.504,0.547,25.330,-28.381,15.198
-0.776,0.443,0.494,8.545,-30.823,10.193
-0.763,0.400,0.438,-10.925,-31.067,-0.305
-0.731,0.385,0.409,-25.208,-27.527,-12.573
-0.688,0.432,0.426,-32.043,-21.912,-23.621
-0.681,0.488,0.459,-29.358,-17.761,-26.733
-0.686,0.500,0.492,-16.296,-15.747,-19.348
-0.704,0.508,0.520,3.540,-16.174,-7.202
-0.714,0.509,0.519,22.888,-16.357,3.845
-0.718,0.514,0.506,28.442,-17.944,10.437
-0.719,0.493,0.474,17.517,-19.958,9.338
-0.730,0.460,0.426,-0.610,-20.081,1.465
-0.721,0.438,0.381,-13.916,-17.944,-7.629
-0.690,0.462,0.346,-20.447,-13.062,-17.029
-0.664,0.507,0.345,-18.677,-6.226,-22.461
-0.664,0.555,0.401,-7.568,1.160,-19.775
-0.680,0.594,0.471,9.033,5.615,-10.376
-0.704,0.610,0.519,23.865,4.517,0.977
-0.729,0.589,0.531,28.625,0.427,8.545
-0.747,0.555,0.523,22.217,-5.371,8.301
-0.754,0.538,0.490,9.338,-10.925,1.953
-0.752,0.539,0.449,-4.517,-13.062,-6.226
-0.742,0.543,0.416,-14.282,-11.841,-13.184

-1.414,0.980,0.474,-28.931,80.750,33.569
-1.541,0.879,0.490,-28.809,80.261,54.504
-1.675,0.708,0.421,-28.442,75.439,72.021
-1.835,0.567,0.323,-28.687,73.181,77.026
-1.932,0.514,0.211,-33.875,70.068,70.557
-1.964,0.464,0.094,-48.462,67.078,61.462
-1.975,0.339,-0.049,-64.148,73.120,50.537
-1.987,0.228,-0.195,-72.388,88.989,38.879
-2.066,0.117,-0.348,-66.956,117.920,30.579
-2.219,0.186,-0.336,-44.617,155.029,30.884
-2.528,0.281,-0.195,-6.287,184.448,49.011
-2.932,0.299,-0.055,46.265,196.838,90.271
-3.158,0.252,0.107,111.755,191.467,137.207
-3.164,0.098,0.188,177.002,169.800,177.673
-3.108,-0.107,0.171,232.056,142.700,202.393
-3.171,-0.320,0.016,270.569,114.563,205.078
-3.343,-0.490,-0.339,287.903,85.205,192.322
-3.699,-0.614,-0.980,281.067,54.443,182.556
-3.952,-0.865,-1.730,255.554,30.701,192.932
-3.735,-1.443,-2.334,236.389,19.470,217.834
-3.168,-2.265,-2.696,244.202,34.180,232.544
-2.403,-2.744,-2.717,270.691,79.041,203.308
-1.375,-2.981,-2.510,276.611,129.089,141.785
0.072,-3.137,-2.101,243.103,162.964,64.514
1.861,-2.755,-1.463,196.350,201.904,-35.767
3.985,-1.833,-0.464,158.020,263.367,-136.292
4.000,-0.709,1.017,130.920,337.585,-205.078
4.000,-0.216,2.149,96.313,400.269,-229.492
4.000,0.459,2.996,42.542,435.547,-269.348
4.000,2.414,4.000,-6.287,444.336,-364.197
4.000,4.000,4.000,-1.648,474.548,-427.979
4.000,4.000,4.000,56.519,462.769,-359.131
2.769,4.000,4.000,127.747,340.759,-177.673
2.043,4.000,3.958,150.452,141.113,32.349
3.129,3.318,3.002,37.781,-110.901,210.449
4.000,0.418,1.742,-142.273,-315.796,290.527
4.000,-1.666,0.616,-236.816,-381.836,290.405
4.000,-2.452,0.273,-174.133,-325.745,258.362
3.675,-2.224,0.390,-12.939,-251.099,211.060
2.784,-1.644,0.550,116.821,-221.313,167.419
2.078,-0.975,0.651,127.014,-218.140,116.943
1.576,-0.602,0.594,22.949,-228.088,72.205
1.092,-0.678,0.336,-110.779,-233.337,42.236
0.548,-0.869,0.120,-193.542,-221.985,25.024
-0.021,-1.006,0.064,-192.932,-198.059,22.583
-0.446,-1.096,0.038,-135.376,-174.622,31.250
-0.841,-0.989,-0.044,-68.787,-151.794,30.518
-1.245,-0.759,-0.105,-29.175,-127.869,15.625
-1.663,-0.515,-0.221,-30.334,-105.713,-5.249
-1.892,-0.323,-0.253,-67.749,-88.806,-30.396
-1.954,-0.220,-0.215,-118.835,-77.393,-55.542
-2.084,-0.136,-0.160,-157.227,-62.012,-75.500
-2.169,-0.162,-0.113,-168.884,-47.729,-89.172
-2.070,-0.293,-0.077,-152.710,-40.955,-92.285
-1.992,-0.316,-0.021,-113.403,-29.602,-95.947
-1.914,-0.244,0.074,-67.505,-12.817,-97.778
-1.765,-0.176,0.202,-37.903,-2.197,-93.140
-1.593,-0.113,0.252,-32.410,5.005,-92.224
-1.421,0.007,0.321,-44.678,13.916,-98.511
-1.339,0.133,0.399,-62.805,24.353,-106.873
-1.257,0.259,0.531,-79.956,31.677,-109.070
-1.235,0.329,0.709,-89.539,33.020,-103.516
-1.218,0.321,0.865,-90.149,31.006,-88.074
-1.216,0.280,0.976,-83.618,25.452,-69.641
-1.222,0.191,1.058,-71.045,18.188,-52.979
-1.229,0.123,1.072,-50.720,7.446,-41.443
-1.186,0.129,1.021,-25.757,-3.967,-38.330
-1.128,0.212,0.944,-6.592,-11.108,-43.701
-1.088,0.342,0.865,-0.488,-12.573,-53.467
-1.090,0.485,0.819,-6.897,-11.963,-61.035
-1.090,0.609,0.800,-20.081,-14.954,-63.721
-1.096,0.692,0.805,-32.654,-19.714,-61.279
-1.068,0.695,0.791,-42.419,-25.513,-54.810
-1.044,0.636,0.750,-49.194,-31.372,-48.950
-1.013,0.558,0.717,-51.331,-34.058,-47.852
-0.979,0.501,0.684,-47.913,-38.025,-47.668
-0.944,0.481,0.642,-38.818,-43.152,-44.678
-0.885,0.501,0.629,-29.907,-46.326,-38.940
-0.846,0.542,0.648,-26.001,-49.316,-34.424
-0.850,0.573,0.661,-29.175,-49.377,-33.447
-0.852,0.564,0.651,-39.246,-48.462,-32.959
-0.856,0.515,0.607,-50.964,-50.537,-33.447
-0.841,0.477,0.565,-55.420,-50.110,-32.227
-0.814,0.424,0.535,-50.232,-47.546,-27.039
-0.780,0.367,0.500,-39.246,-43.884,-19.592
-0.748,0.343,0.498,-25.757,-38.330,-12.512
-0.725,0.364,0.553,-14.893,-34.119,-6.714
-0.714,0.365,0.624,-10.559,-35.095,-3.601
-0.708,0.374,0.666,-14.038,-41.565,-3.540
-0.721,0.417,0.683,-22.949,-48.218,-9.277
-0.731,0.422,0.631,-35.400,-49.500,-19.775
-0.734,0.452,0.567,-47.729,-51.636,-29.907
-0.715,0.454,0.501,-48.157,-51.147,-32.715
-0.696,0.452,0.434,-36.743,-44.373,-28.687
-0.693,0.467,0.432,-20.752,-34.363,-21.606
-0.697,0.496,0.488,-7.263,-26.489,-14.465
-0.718,0.512,0.542,-1.038,-24.658,-7.690
-0.732,0.529,0.598,-1.221,-28.503,-3.906
-0.740,0.529,0.639,-7.080,-34.485,-3.357
-0.747,0.508,0.654,-17.395,-40.771,-5.798
-0.749,0.485,0.621,-26.550,-44.373,-12.573
-0.735,0.473,0.551,-34.302,-44.556,-21.606
-0.714,0.480,0.471,-38.574,-43.152,-29.236
-0.682,0.525,0.410,-37.598,-37.781,-32.349
-0.673,0.602,0.406,-30.823,-30.457,-29.785
-0.669,0.686,0.448,-22.156,-24.719,-20.813
-0.670,0.706,0.472,-16.907,-23.804,-7.385
-0.681,0.666,0.467,-15.808,-26.733,3.601
-0.681,0.602,0.461,-17.639,-30.701,8.362
-0.671,0.547,0.454,-20.996,-33.508,6.470
-0.650,0.511,0.423,-26.794,-34.790,-0.183
-0.646,0.499,0.391,-34.851,-33.020,-8.545
-0.642,0.525,0.364,-41.260,-28.748,-17.639
-0.635,0.573,0.355,-42.480,-23.376,-22.766
-0.636,0.636,0.387,-38.818,-17.578,-22.156
-0.667,0.689,0.450,-34.485,-13.916,-16.296
-0.693,0.686,0.483,-31.738,-17.090,-7.019
-0.698,0.639,0.486,-28.809,-24.109,0.671
-0.702,0.576,0.464,-26.184,-30.884,4.761

-1.635,0.598,0.384,9.033,69.946,52.795
-1.786,0.481,0.360,16.174,67.932,63.354
-1.943,0.392,0.271,16.907,61.035,69.885
-2.125,0.405,0.144,8.911,57.922,66.101
-2.265,0.494,0.071,-7.324,61.584,56.580
-2.348,0.636,0.020,-30.518,68.237,48.035
-2.393,0.768,0.068,-48.889,78.735,42.664
-2.460,0.800,0.150,-58.044,96.436,40.894
-2.505,0.811,0.124,-65.002,113.708,36.621
-2.536,0.748,0.013,-64.148,129.700,31.677
-2.535,0.670,-0.091,-56.702,148.254,32.471
-2.448,0.723,-0.023,-33.081,167.114,48.218
-2.405,0.602,0.116,14.893,186.218,86.243
-2.502,0.329,0.136,82.642,203.125,135.742
-2.539,0.074,0.031,158.020,208.862,181.885
-2.598,-0.157,-0.146,225.098,207.825,215.271
-2.766,-0.140,-0.348,265.442,197.449,233.093
-3.086,-0.216,-0.636,269.958,178.589,249.146
-3.363,-0.751,-0.873,247.253,150.269,277.771
-3.400,-2.038,-1.065,209.229,119.507,299.316
-3.150,-3.537,-1.134,156.555,93.445,269.592
-2.544,-4.000,-1.032,92.896,74.341,172.363
-1.201,-4.000,-0.908,33.508,49.744,39.673
0.758,-4.000,-0.682,28.809,41.565,-85.999
3.013,-2.624,0.023,96.130,87.280,-172.607
4.000,-0.459,0.965,166.199,166.565,-218.323
4.000,1.625,1.987,137.695,217.651,-243.958
4.000,2.688,2.236,-13.184,195.740,-272.705
4.000,2.822,2.182,-213.928,112.366,-331.970
4.000,3.795,1.183,-314.941,28.748,-427.429
4.000,4.000,0.248,-247.314,22.278,-441.528
4.000,4.000,-0.266,-94.482,55.115,-316.345
3.909,4.000,-0.052,61.401,94.055,-137.512
3.179,4.000,0.503,153.320,103.577,32.837
2.844,2.646,1.014,161.743,71.655,176.697
2.850,0.839,1.132,140.503,19.714,253.601
2.809,-0.115,1.014,124.146,-17.090,258.728
2.527,-0.429,0.994,120.178,-30.884,237.549
2.130,-0.562,1.114,131.165,-36.804,219.299
1.702,-0.611,1.277,137.207,-50.842,202.393
1.381,-0.647,1.303,118.042,-72.937,175.049
1.083,-0.663,1.246,81.055,-93.079,136.902
0.795,-0.662,1.139,44.495,-105.286,100.769
0.469,-0.631,1.006,16.296,-109.924,69.946
0.200,-0.480,0.889,-14.893,-110.291,46.814
-0.104,-0.402,0.789,-53.650,-103.516,32.715
-0.371,-0.437,0.733,-90.759,-93.079,24.414
-0.578,-0.493,0.711,-115.417,-83.679,14.160
-0.792,-0.502,0.665,-125.244,-72.754,-1.465
-0.993,-0.428,0.639,-125.916,-58.228,-19.409
-1.182,-0.291,0.687,-127.441,-43.274,-37.170
-1.469,-0.119,0.737,-134.399,-37.476,-49.683
-1.730,-0.033,0.721,-148.315,-43.396,-53.955
-1.743,0.020,0.690,-170.105,-63.538,-52.795
-1.677,0.067,0.648,-182.495,-82.397,-57.861
-1.682,0.120,0.602,-168.884,-84.534,-65.369
-1.631,0.102,0.543,-130.005,-67.810,-65.369
-1.602,0.151,0.558,-82.458,-35.095,-62.927
-1.651,0.214,0.663,-42.297,4.639,-62.073
-1.696,0.290,0.873,-29.053,33.020,-61.279
-1.719,0.339,1.095,-40.161,36.255,-64.819
-1.718,0.365,1.185,-61.218,18.982,-71.472
-1.633,0.395,1.073,-84.595,-14.038,-79.773
-1.474,0.454,0.892,-104.553,-46.326,-90.515
-1.306,0.501,0.680,-113.831,-64.758,-97.534
-1.202,0.527,0.495,-110.718,-65.674,-91.675
-1.150,0.537,0.405,-96.130,-52.490,-77.332
-1.125,0.580,0.465,-70.984,-31.372,-56.763
-1.137,0.583,0.621,-43.518,-11.414,-31.860
-1.181,0.510,0.776,-23.315,-2.747,-6.958
-1.189,0.406,0.868,-10.437,-6.531,8.728
-1.192,0.317,0.860,-1.038,-18.066,9.460
-1.157,0.294,0.782,1.587,-33.997,0.793
-1.086,0.310,0.675,-1.770,-51.819,-11.047
-0.984,0.352,0.553,-10.559,-64.636,-24.719
-0.900,0.396,0.436,-24.231,-69.519,-35.461
-0.825,0.447,0.358,-35.522,-66.101,-40.833
-0.796,0.493,0.361,-36.255,-54.749,-38.696
-0.794,0.521,0.455,-26.123,-42.053,-27.405
-0.811,0.500,0.552,-9.583,-35.645,-11.047
-0.817,0.463,0.620,4.761,-36.682,2.380
-0.815,0.408,0.622,13.184,-43.091,8.789
-0.786,0.366,0.594,11.841,-52.551,7.141
-0.743,0.316,0.556,2.991,-60.669,-1.587
-0.708,0.284,0.516,-8.301,-66.772,-13.306
-0.671,0.299,0.493,-17.517,-69.519,-25.818
-0.651,0.387,0.497,-20.813,-68.115,-35.645
-0.652,0.509,0.524,-19.409,-65.002,-36.804
-0.679,0.584,0.545,-13.123,-63.171,-27.771
-0.709,0.599,0.531,-2.808,-62.866,-13.855
-0.728,0.586,0.510,9.216,-62.683,-2.258
-0.738,0.542,0.488,18.311,-61.646,4.211
-0.739,0.487,0.475,20.508,-60.730,6.531
-0.739,0.415,0.465,18.738,-59.082,4.578
-0.727,0.363,0.461,15.991,-56.519,-0.427
-0.722,0.361,0.483,11.841,-53.650,-6.714
-0.721,0.393,0.505,4.639,-50.964,-13.916
-0.719,0.457,0.513,-3.296,-49.988,-18.494
-0.737,0.500,0.519,-9.338,-50.171,-21.484
-0.739,0.513,0.501,-11.597,-52.490,-21.057
-0.754,0.528,0.469,-7.874,-54.260,-19.043
-0.741,0.529,0.430,0.488,-54.504,-15.808
-0.732,0.531,0.401,10.010,-53.467,-12.268
-0.718,0.528,0.387,17.578,-50.293,-9.094
-0.716,0.504,0.384,20.203,-46.509,-5.676
-0.713,0.471,0.389,18.677,-43.457,-4.517
-0.717,0.453,0.384,14.832,-41.870,-5.371
-0.714,0.448,0.373,9.705,-40.100,-8.057
-0.719,0.469,0.363,5.188,-37.231,-11.475
-0.724,0.507,0.366,3.235,-34.363,-13.916
-0.725,0.569,0.387,6.409,-32.776,-12.451
-0.739,0.625,0.409,14.343,-32.532,-5.554
-0.743,0.630,0.402,22.095,-34.363,4.211
-0.744,0.586,0.362,26.733,-36.987,13.550
-0.735,0.528,0.315,27.832,-37.842,17.456
-0.723,0.469,0.275,25.879,-35.828,16.235
-0.710,0.403,0.235,21.423,-31.311,11.108
-0.706,0.370,0.216,15.686,-24.231,3.357
-0.711,0.390,0.241,10.681,-15.076,-5.066

-1.437,0.829,0.596,49.500,101.624,81.299
-1.526,0.747,0.679,63.965,103.210,99.426
-1.614,0.641,0.738,76.782,103.699,112.244
-1.701,0.517,0.764,84.656,101.563,114.929
-1.728,0.423,0.738,81.421,91.553,110.229
-1.776,0.327,0.632,69.275,80.872,101.807
-1.831,0.272,0.473,53.223,74.402,92.590
-1.931,0.235,0.268,36.438,72.937,83.191
-2.091,0.235,0.056,23.193,82.825,76.599
-2.284,0.282,-0.120,18.982,99.792,74.768
-2.489,0.372,-0.119,30.701,121.033,81.543
-2.676,0.421,0.021,70.068,139.465,104.248
-2.816,0.455,0.234,140.442,148.254,147.400
-2.974,0.388,0.424,224.365,141.785,205.261
-3.107,0.190,0.445,292.603,115.051,258.118
-3.112,-0.099,0.233,316.284,70.068,285.950
-3.154,-0.492,-0.237,276.978,11.902,282.410
-3.148,-1.008,-0.888,188.354,-45.044,257.568
-3.033,-1.683,-1.683,93.323,-89.417,229.187
-2.722,-2.452,-2.574,37.659,-113.708,208.801
-1.963,-3.141,-3.385,53.528,-101.196,197.998
-1.140,-3.487,-3.745,148.926,-19.287,187.134
-0.249,-3.440,-3.369,271.179,126.770,163.330
0.794,-3.146,-2.283,326.843,275.818,116.272
1.975,-2.574,-0.634,267.639,379.517,29.114
3.597,-1.768,1.231,137.207,421.204,-80.627
4.000,-1.220,3.140,27.283,414.307,-163.086
4.000,-0.647,4.000,-7.141,403.259,-226.257
4.000,0.635,4.000,16.968,389.404,-314.453
4.000,2.890,4.000,46.570,336.487,-409.241
4.000,4.000,4.000,11.292,288.696,-465.271
3.475,4.000,3.402,-93.445,223.206,-443.604
2.317,4.000,2.537,-138.794,109.070,-294.495
2.479,4.000,2.097,-102.173,-7.019,-32.349
3.218,3.625,2.029,-89.233,-114.868,205.200
3.845,0.645,2.072,-129.395,-197.144,321.045
3.992,-1.325,1.859,-143.372,-244.446,333.984
3.580,-1.840,1.509,-83.252,-255.005,294.434
3.095,-1.615,1.045,1.526,-269.348,248.474
2.665,-1.471,0.685,38.452,-285.828,210.266
2.157,-1.207,0.452,7.568,-282.898,153.503
1.756,-1.129,0.160,-69.031,-275.879,104.736
1.397,-1.260,-0.131,-134.705,-259.888,72.083
0.905,-1.247,-0.318,-153.748,-224.792,46.387
0.358,-1.157,-0.324,-131.714,-180.115,34.302
-0.164,-1.112,-0.233,-99.304,-139.954,30.518
-0.685,-1.022,-0.140,-85.022,-110.718,15.686
-1.158,-0.903,-0.069,-96.680,-93.384,-13.611
-1.480,-0.783,-0.035,-118.286,-86.243,-47.668
-1.631,-0.603,-0.026,-130.005,-85.693,-75.745
-1.671,-0.427,-0.041,-125.793,-87.097,-88.013
-1.572,-0.284,-0.037,-107.300,-86.243,-85.388
-1.475,-0.156,0.010,-80.872,-78.430,-75.500
-1.391,-0.094,0.090,-56.946,-66.345,-62.195
-1.339,-0.087,0.152,-46.143,-56.458,-51.697
-1.320,-0.131,0.142,-50.415,-50.659,-47.058
-1.272,-0.204,0.110,-64.758,-46.082,-46.448
-1.277,-0.230,0.116,-79.407,-36.377,-51.575
-1.325,-0.187,0.222,-90.027,-21.057,-60.364
-1.404,-0.152,0.349,-99.670,-7.080,-67.017
-1.409,-0.137,0.460,-111.572,-5.493,-72.266
-1.390,-0.135,0.513,-121.887,-12.695,-79.346
-1.350,-0.067,0.538,-120.667,-20.264,-87.952
-1.317,0.083,0.552,-105.347,-21.912,-95.215
-1.302,0.253,0.577,-83.801,-16.235,-95.398
-1.278,0.431,0.655,-65.308,-7.568,-89.600
-1.313,0.558,0.752,-56.580,1.526,-80.200
-1.362,0.580,0.815,-60.486,3.906,-67.810
-1.359,0.529,0.846,-71.411,-2.258,-56.152
-1.330,0.448,0.829,-83.862,-11.597,-51.697
-1.271,0.371,0.772,-93.018,-22.949,-54.565
-1.205,0.359,0.701,-94.238,-32.471,-62.561
-1.138,0.424,0.632,-87.585,-37.598,-70.923
-1.085,0.467,0.604,-78.613,-39.185,-71.167
-1.067,0.495,0.607,-68.604,-35.522,-60.669
-1.066,0.475,0.596,-55.847,-30.396,-43.030
-1.061,0.414,0.564,-40.588,-26.123,-25.208
-1.075,0.383,0.538,-25.208,-18.433,-11.841
-1.057,0.366,0.518,-14.832,-13.306,-3.723
-1.056,0.360,0.517,-14.587,-12.329,-2.014
-1.044,0.354,0.513,-22.034,-12.756,-5.737
-1.027,0.387,0.527,-31.372,-15.137,-14.282
-1.026,0.443,0.526,-38.330,-18.616,-24.597
-0.989,0.534,0.503,-43.701,-22.278,-31.189
-0.976,0.614,0.483,-45.471,-24.780,-31.921
-0.986,0.672,0.473,-43.762,-24.475,-23.865
-0.967,0.641,0.447,-36.926,-22.705,-9.644
-0.980,0.608,0.456,-25.635,-20.142,5.615
-0.972,0.546,0.458,-13.428,-18.188,19.592
-0.969,0.467,0.445,-7.019,-18.188,27.466
-0.961,0.404,0.429,-8.240,-19.531,27.405
-0.947,0.351,0.408,-14.587,-21.362,20.813
-0.923,0.327,0.381,-21.912,-22.888,10.681
-0.901,0.319,0.350,-28.259,-23.193,0.916
-0.883,0.345,0.357,-30.396,-22.095,-6.287
-0.859,0.387,0.395,-26.978,-20.264,-8.118
-0.863,0.412,0.433,-19.470,-20.691,-4.639
-0.863,0.413,0.436,-9.644,-21.973,2.258
-0.863,0.387,0.404,-2.991,-22.095,9.766
-0.877,0.359,0.389,-1.343,-21.545,13.550
-0.887,0.322,0.383,-2.686,-20.752,12.146
-0.879,0.286,0.379,-4.944,-20.203,6.958
-0.879,0.262,0.346,-6.531,-19.775,-0.244
-0.858,0.272,0.313,-5.737,-17.578,-8.240
-0.829,0.324,0.308,-2.747,-12.817,-12.939
-0.823,0.371,0.333,2.563,-8.484,-12.695
-0.823,0.390,0.394,11.292,-7.263,-6.531
-0.827,0.375,0.414,20.203,-9.827,1.038
-0.820,0.355,0.420,28.748,-15.320,7.996
-0.807,0.347,0.389,33.081,-20.447,11.047
-0.800,0.312,0.328,28.137,-23.560,8.972
-0.794,0.276,0.287,17.334,-24.597,1.404
-0.785,0.257,0.269,7.080,-22.400,-8.606
-0.767,0.273,0.265,1.282,-18.921,-18.311
-0.743,0.313,0.273,1.160,-14.526,-23.315
-0.738,0.351,0.298,5.615,-11.047,-20.630
-0.747,0.391,0.348,13.916,-9.277,-13.123
-0.771,0.407,0.391,24.353,-9.277,-3.418
-0.790,0.390,0.373,31.555,-12.024,4.883

-2.232,0.272,0.271,-15.076,89.966,17.883
-2.443,0.266,0.237,-9.460,92.651,14.709
-2.613,0.252,0.119,11.475,95.825,18.982
-2.818,0.209,-0.017,53.406,108.093,32.959
-3.018,0.186,-0.198,112.915,131.531,51.270
-3.067,0.220,-0.273,171.082,164.978,69.458
-3.010,0.259,-0.220,219.299,206.482,87.708
-2.915,0.238,-0.119,250.000,245.422,121.216
-2.935,-0.123,-0.046,265.198,269.897,176.086
-3.182,-0.765,-0.087,281.006,279.602,227.722
-3.658,-1.431,-0.238,297.546,265.808,243.713
-4.000,-1.848,-0.556,289.917,225.647,213.562
-4.000,-1.981,-0.987,252.991,173.950,155.212
-4.000,-1.886,-1.413,210.266,121.521,100.708
-3.869,-1.780,-1.667,199.951,85.510,71.838
-3.051,-1.693,-1.807,233.643,72.876,66.406
-1.763,-1.571,-1.820,285.156,79.834,64.758
-0.326,-1.255,-1.617,309.265,106.323,49.316
1.312,-1.067,-0.970,274.048,153.442,26.184
3.239,-0.887,-0.072,172.180,194.397,-12.207
4.000,-0.775,0.621,41.138,220.520,-58.105
4.000,-0.769,1.467,-56.213,266.235,-102.539
4.000,-0.522,2.438,-90.942,322.937,-163.818
4.000,0.603,3.126,-80.811,354.614,-272.156
4.000,2.771,3.156,-68.237,362.549,-384.338
4.000,4.000,2.967,-59.631,372.192,-411.621
3.552,4.000,2.910,-29.785,330.933,-329.651
1.800,4.000,3.000,41.565,253.540,-169.861
1.376,4.000,3.034,101.440,117.554,16.052
2.089,2.625,2.602,72.327,-67.871,155.334
3.052,0.703,1.812,-38.269,-235.718,219.788
3.816,-0.969,1.012,-154.236,-342.163,227.966
3.799,-1.908,0.606,-187.683,-367.920,213.379
3.377,-2.069,0.349,-101.685,-344.666,181.519
2.895,-1.724,0.236,36.133,-324.524,146.545
2.458,-1.163,0.138,134.827,-321.350,111.328
2.089,-0.471,-0.015,138.550,-322.632,82.275
1.747,-0.110,-0.095,62.439,-307.007,63.232
1.341,-0.063,-0.093,-53.650,-281.982,50.781
0.853,-0.216,-0.077,-162.415,-249.573,45.593
0.420,-0.464,-0.052,-228.821,-215.942,48.645
0.002,-0.827,-0.004,-239.502,-181.152,58.289
-0.346,-1.090,0.079,-200.684,-149.170,59.082
-0.638,-1.081,0.167,-136.719,-127.075,44.434
-0.897,-0.902,0.222,-77.454,-113.464,25.391
-1.095,-0.650,0.234,-49.072,-109.924,9.277
-1.300,-0.399,0.164,-60.059,-111.511,-6.592
-1.537,-0.200,0.023,-99.915,-111.755,-25.146
-1.668,-0.113,-0.118,-148.682,-112.671,-43.213
-1.688,-0.143,-0.224,-185.730,-108.704,-52.490
-1.686,-0.225,-0.251,-196.411,-96.924,-50.537
-1.756,-0.321,-0.156,-179.626,-79.224,-38.025
-1.749,-0.453,-0.022,-146.606,-61.401,-15.869
-1.727,-0.521,0.146,-110.413,-49.072,0.671
-1.697,-0.487,0.314,-82.214,-43.335,6.653
-1.683,-0.465,0.385,-68.176,-41.992,1.770
-1.618,-0.426,0.395,-74.707,-43.335,-14.343
-1.584,-0.279,0.417,-98.328,-46.814,-44.617
-1.530,-0.137,0.382,-130.493,-47.852,-81.177
-1.448,0.032,0.368,-163.208,-48.584,-115.295
-1.370,0.168,0.398,-183.167,-46.326,-135.803
-1.344,0.290,0.468,-178.528,-32.837,-136.841
-1.334,0.322,0.547,-149.475,-16.296,-119.568
-1.316,0.342,0.662,-106.323,-3.113,-89.966
-1.329,0.344,0.782,-60.364,5.493,-61.584
-1.350,0.328,0.846,-23.865,7.446,-39.673
-1.333,0.313,0.876,-3.906,2.808,-29.358
-1.303,0.277,0.847,-2.686,-4.333,-32.166
-1.256,0.276,0.756,-21.729,-14.282,-45.959
-1.227,0.299,0.642,-52.307,-22.949,-67.322
-1.191,0.341,0.551,-84.534,-28.503,-88.440
-1.176,0.389,0.487,-109.131,-33.691,-103.088
-1.143,0.435,0.436,-115.234,-36.682,-104.309
-1.127,0.466,0.390,-101.379,-36.987,-91.125
-1.114,0.488,0.394,-73.242,-35.461,-69.702
-1.102,0.495,0.386,-40.527,-34.058,-46.509
-1.102,0.492,0.384,-14.648,-34.851,-25.208
-1.088,0.500,0.390,-0.122,-38.269,-9.827
-1.052,0.486,0.373,1.709,-41.992,-2.258
-1.017,0.462,0.369,-5.493,-46.143,-2.258
-0.964,0.443,0.326,-17.151,-47.852,-6.409
-0.938,0.436,0.291,-26.428,-43.518,-13.245
-0.910,0.454,0.289,-28.809,-36.194,-18.311
-0.894,0.487,0.334,-23.437,-31.067,-15.991
-0.883,0.518,0.383,-12.512,-29.297,-7.751
-0.873,0.523,0.410,0.305,-29.663,2.319
-0.862,0.510,0.413,9.460,-31.128,11.963
-0.864,0.448,0.376,9.399,-35.278,17.395
-0.853,0.375,0.349,1.953,-39.856,16.113
-0.833,0.317,0.320,-8.728,-42.847,7.202
-0.822,0.272,0.289,-18.982,-42.358,-5.981
-0.787,0.267,0.283,-26.062,-37.537,-20.081
-0.782,0.303,0.306,-33.203,-31.311,-33.752
-0.792,0.352,0.342,-35.583,-29.480,-41.748
-0.784,0.404,0.361,-27.893,-31.555,-40.039
-0.782,0.452,0.343,-12.634,-33.813,-30.579
-0.778,0.488,0.305,1.343,-34.424,-18.250
-0.788,0.492,0.272,9.399,-33.630,-7.996
-0.803,0.468,0.257,9.949,-31.433,-3.906
-0.815,0.447,0.255,7.751,-27.710,-5.310
-0.819,0.426,0.241,5.737,-22.156,-10.071
-0.816,0.422,0.219,3.479,-15.198,-16.418
-0.807,0.450,0.237,1.404,-7.202,-21.851
-0.813,0.500,0.305,-0.183,-1.404,-24.048
-0.822,0.521,0.373,0.671,0.244,-21.301
-0.841,0.517,0.391,4.089,-1.587,-15.137
-0.860,0.523,0.396,9.399,-4.944,-9.460
-0.873,0.524,0.385,13.611,-7.141,-6.409
-0.870,0.510,0.368,13.611,-9.460,-6.958
-0.858,0.503,0.344,10.925,-10.742,-9.399
-0.833,0.498,0.301,6.836,-10.132,-12.878
-0.816,0.500,0.275,1.770,-7.263,-16.113
-0.804,0.500,0.261,-2.563,-3.113,-18.433
-0.795,0.519,0.267,-3.967,1.099,-18.555
-0.779,0.539,0.272,-2.808,5.005,-16.663
-0.783,0.556,0.299,2.380,7.507,-11.658
-0.786,0.582,0.336,12.573,8.606,-3.540
-0.796,0.590,0.357,21.484,7.690,5.554
-0.813,0.570,0.362,27.954,4.700,13.855

-2.291,0.357,0.016,72.083,99.365,1.282
-2.370,0.543,0.163,96.863,131.531,-3.967
-2.537,0.854,0.522,116.821,158.569,6.592
-2.867,1.018,0.756,118.286,163.269,43.518
-3.098,1.018,0.877,112.549,148.315,95.032
-3.277,0.870,0.868,117.493,128.418,142.639
-3.281,0.607,0.835,140.747,107.788,178.467
-3.156,0.235,0.711,180.542,86.182,200.928
-3.075,-0.131,0.471,228.638,64.209,209.534
-3.087,-0.452,0.019,275.269,39.978,212.341
-3.407,-0.700,-0.725,302.368,8.728,216.309
-3.769,-1.030,-1.676,294.678,-31.006,223.145
-3.574,-1.499,-2.617,254.333,-74.951,229.004
-3.147,-2.147,-3.388,204.895,-86.548,216.675
-2.507,-2.700,-3.871,170.471,-52.979,177.002
-1.430,-3.069,-4.000,158.813,10.620,114.563
-0.070,-3.110,-4.000,166.504,106.934,42.725
1.297,-2.709,-3.494,187.927,239.258,-34.424
2.672,-2.103,-1.963,202.942,377.991,-110.840
3.999,-1.488,-0.077,193.298,461.609,-172.241
4.000,-0.717,1.592,156.616,456.238,-203.430
4.000,-0.360,2.490,102.905,434.265,-200.684
4.000,0.200,3.360,38.147,467.529,-226.685
4.000,1.206,4.000,-26.428,492.004,-294.922
4.000,3.253,4.000,-42.908,516.785,-366.394
4.000,4.000,4.000,-6.348,505.981,-364.441
2.214,4.000,4.000,39.429,385.010,-246.094
1.228,4.000,4.000,76.843,207.153,-84.351
1.612,3.912,3.272,37.292,-4.639,71.472
2.800,1.766,2.292,-69.519,-198.669,182.922
3.747,-0.336,1.344,-175.476,-317.139,232.910
3.866,-1.644,0.734,-207.947,-344.116,241.150
3.373,-2.046,0.440,-129.822,-302.917,213.196
2.797,-1.859,0.150,-6.714,-262.695,174.316
2.299,-1.478,0.030,87.341,-238.708,137.390
1.821,-1.024,0.051,118.713,-218.018,94.971
1.359,-0.600,0.123,84.717,-205.994,54.443
1.049,-0.334,0.066,10.925,-206.665,33.325
0.785,-0.294,-0.042,-71.655,-207.397,33.936
0.469,-0.415,-0.147,-139.465,-196.045,42.969
0.226,-0.584,-0.186,-182.983,-172.119,50.232
-0.113,-0.802,-0.178,-199.036,-137.695,48.767
-0.480,-0.929,-0.108,-190.979,-100.403,34.912
-0.796,-0.892,0.035,-162.964,-72.571,12.939
-1.106,-0.723,0.157,-123.596,-52.734,-6.958
-1.354,-0.408,0.275,-87.097,-46.082,-23.010
-1.562,-0.097,0.311,-63.965,-49.866,-34.485
-1.575,0.070,0.304,-62.073,-60.181,-34.363
-1.496,0.088,0.258,-77.148,-70.496,-29.541
-1.431,0.031,0.227,-100.098,-76.355,-27.710
-1.393,-0.023,0.227,-118.164,-77.271,-27.527
-1.319,-0.056,0.249,-125.671,-73.120,-24.658
-1.249,-0.059,0.322,-124.023,-65.369,-19.836
-1.225,-0.063,0.367,-115.417,-52.063,-16.968
-1.233,-0.067,0.338,-109.314,-32.959,-18.555
-1.216,-0.031,0.331,-111.572,-13.672,-30.823
-1.208,0.099,0.409,-124.756,3.845,-55.176
-1.251,0.263,0.537,-145.630,16.968,-82.458
-1.238,0.389,0.658,-168.091,19.409,-102.478
-1.246,0.487,0.786,-181.763,13.977,-112.061
-1.266,0.545,0.901,-179.321,4.761,-109.619
-1.268,0.547,0.957,-161.743,-8.972,-93.262
-1.220,0.417,0.948,-136.780,-22.949,-66.101
-1.141,0.251,0.871,-109.558,-30.518,-46.204
-1.078,0.171,0.770,-81.421,-25.024,-42.847
-1.097,0.188,0.684,-60.181,-7.874,-54.932
-1.125,0.350,0.692,-50.659,10.071,-77.209
-1.143,0.596,0.778,-57.007,18.921,-96.252
-1.182,0.810,0.885,-78.857,13.733,-105.286
-1.214,0.900,0.925,-104.553,-3.357,-103.821
-1.217,0.905,0.871,-118.103,-26.733,-96.741
-1.194,0.868,0.718,-113.098,-47.119,-87.402
-1.156,0.841,0.571,-90.149,-58.777,-76.477
-1.123,0.824,0.454,-57.007,-59.387,-62.073
-1.066,0.856,0.396,-24.597,-51.331,-44.495
-1.052,0.903,0.390,-4.272,-39.185,-26.489
-1.080,0.917,0.451,-1.953,-25.818,-13.916
-1.105,0.885,0.505,-14.221,-20.813,-8.240
-1.086,0.789,0.518,-38.025,-26.489,-8.545
-1.063,0.690,0.528,-61.768,-37.476,-14.526
-1.025,0.590,0.512,-77.454,-48.340,-23.315
-0.982,0.513,0.476,-84.351,-56.274,-32.959
-0.939,0.492,0.431,-82.153,-61.340,-41.077
-0.882,0.511,0.382,-70.068,-64.453,-43.640
-0.821,0.531,0.325,-51.086,-61.462,-38.757
-0.792,0.535,0.279,-30.151,-52.979,-27.893
-0.778,0.545,0.247,-11.902,-42.969,-15.930
-0.774,0.583,0.266,0.000,-33.875,-7.263
-0.762,0.576,0.312,2.808,-28.381,-0.732
-0.775,0.535,0.361,-2.136,-28.198,2.991
-0.798,0.448,0.387,-6.104,-29.846,3.235
-0.795,0.369,0.389,-6.042,-32.654,-0.610
-0.792,0.339,0.363,-0.916,-36.804,-7.324
-0.762,0.343,0.317,5.981,-38.574,-17.090
-0.755,0.394,0.265,11.169,-37.781,-27.588
-0.737,0.519,0.239,13.794,-33.264,-35.034
-0.713,0.656,0.264,9.949,-27.222,-35.339
-0.716,0.718,0.313,-0.854,-23.437,-30.212
-0.727,0.710,0.336,-9.521,-20.752,-24.170
-0.720,0.670,0.353,-11.719,-19.165,-19.043
-0.707,0.635,0.337,-11.597,-20.447,-14.893
-0.706,0.629,0.306,-9.827,-21.606,-11.597
-0.685,0.614,0.262,-6.348,-20.264,-9.338
-0.666,0.648,0.226,-3.540,-18.982,-6.653
-0.650,0.654,0.197,-0.366,-13.672,-2.625
-0.638,0.639,0.183,1.526,-6.409,0.671
-0.634,0.639,0.187,2.258,1.282,3.845
-0.629,0.667,0.226,0.977,9.399,5.371
-0.648,0.678,0.283,-2.808,15.747,7.019
-0.653,0.663,0.350,-7.507,17.517,10.071
-0.662,0.636,0.383,-9.766,13.733,12.451
-0.687,0.610,0.375,-9.949,8.972,13.245
-0.687,0.636,0.385,-5.859,4.150,12.695
-0.680,0.659,0.380,-0.916,0.488,12.207
-0.680,0.684,0.367,3.235,-1.587,12.756
-0.673,0.701,0.354,6.042,-1.648,13.977
-0.677,0.702,0.350,6.592,-0.549,15.686
-0.672,0.697,0.347,4.578,0.366,16.968
-0.673,0.677,0.351,0.122,0.793,16.296

-1.769,0.868,0.134,37.659,60.730,49.500
-1.847,0.890,0.197,43.213,66.650,55.969
-1.927,0.855,0.231,44.250,68.970,61.707
-2.007,0.798,0.250,43.701,70.251,65.125
-2.061,0.748,0.230,42.908,71.655,64.392
-2.122,0.658,0.163,44.739,75.195,61.157
-2.211,0.617,0.088,52.246,85.510,56.824
-2.348,0.568,-0.023,67.749,101.318,53.894
-2.459,0.495,-0.104,96.191,121.765,54.688
-2.473,0.408,-0.149,137.451,146.362,54.993
-2.304,0.320,-0.105,191.467,174.927,48.706
-2.133,0.249,-0.020,249.878,204.895,35.828
-2.005,0.244,0.084,303.345,236.755,19.165
-2.064,0.369,0.169,344.543,269.592,7.141
-2.402,0.671,0.395,376.587,297.485,12.207
-2.747,0.888,0.684,402.710,298.828,50.964
-3.136,0.849,0.714,411.926,270.630,110.229
-3.636,0.505,0.471,384.583,215.088,170.288
-3.824,-0.109,0.140,321.228,146.912,208.008
-3.735,-0.855,-0.148,231.445,83.496,198.120
-3.441,-1.504,-0.404,139.893,28.259,150.146
-2.959,-1.923,-0.644,92.163,-19.043,93.628
-1.950,-2.247,-0.911,121.643,-57.495,59.875
-0.529,-2.467,-1.180,207.458,-75.134,54.321
1.133,-2.182,-1.235,289.429,-62.988,51.636
3.063,-1.326,-0.751,294.189,-21.057,48.157
4.000,-0.871,0.078,189.880,47.363,47.852
4.000,-1.177,1.080,14.587,149.780,-0.183
4.000,-0.956,2.291,-151.855,262.329,-146.423
4.000,0.361,3.414,-237.061,277.344,-347.656
4.000,2.489,3.350,-195.129,224.487,-467.712
4.000,4.000,2.683,-62.622,194.702,-464.050
3.158,4.000,2.121,42.603,141.785,-359.558
1.929,4.000,1.557,76.599,60.547,-193.359
1.895,4.000,1.324,45.044,-33.264,2.319
2.490,2.532,1.347,-33.264,-117.798,161.804
2.949,0.205,1.544,-106.812,-165.894,237.915
3.092,-1.413,1.578,-123.474,-183.289,245.422
2.924,-1.950,1.272,-82.031,-192.383,202.515
2.639,-1.812,0.807,-15.137,-210.876,149.475
2.344,-1.431,0.380,54.077,-209.045,118.286
1.988,-0.998,0.182,86.487,-179.810,101.868
1.573,-0.700,0.194,62.866,-144.775,88.074
1.234,-0.511,0.276,3.357,-121.155,71.594
0.833,-0.364,0.391,-59.204,-106.750,64.087
0.516,-0.313,0.427,-104.431,-103.516,71.228
0.313,-0.421,0.420,-130.127,-112.183,85.632
0.134,-0.553,0.371,-140.747,-117.310,92.041
-0.211,-0.628,0.245,-142.639,-113.342,79.895
-0.659,-0.617,0.074,-140.564,-102.295,56.213
-0.970,-0.486,-0.027,-132.568,-90.149,29.480
-1.183,-0.215,-0.018,-116.699,-76.111,8.057
-1.347,0.062,0.123,-97.107,-59.875,0.427
-1.443,0.231,0.385,-81.482,-47.546,11.353
-1.449,0.237,0.614,-77.637,-47.119,35.217
-1.457,0.110,0.689,-85.388,-60.242,59.814
-1.417,-0.080,0.631,-102.173,-77.759,77.942
-1.357,-0.293,0.490,-121.582,-90.576,84.778
-1.301,-0.455,0.327,-140.198,-91.858,74.341
-1.396,-0.454,0.220,-157.837,-79.102,46.082
-1.511,-0.417,0.204,-176.208,-58.533,9.033
-1.530,-0.350,0.263,-197.876,-43.701,-27.039
-1.483,-0.247,0.406,-214.172,-36.011,-59.021
-1.476,-0.152,0.555,-213.867,-25.208,-75.256
-1.418,-0.078,0.711,-194.214,-12.390,-72.632
-1.387,0.028,0.862,-159.424,-2.502,-60.913
-1.391,0.113,0.991,-119.324,6.287,-47.913
-1.418,0.198,1.090,-89.355,7.996,-36.926
-1.423,0.254,1.129,-83.496,-4.517,-35.034
-1.340,0.261,1.057,-105.652,-29.419,-46.326
-1.244,0.233,0.885,-147.095,-57.190,-75.806
-1.172,0.238,0.662,-194.336,-74.097,-117.615
-1.120,0.322,0.502,-228.577,-78.308,-159.485
-1.081,0.460,0.382,-235.474,-72.388,-184.753
-1.057,0.606,0.360,-208.435,-54.077,-180.603
-1.048,0.729,0.430,-156.616,-28.748,-148.499
-1.095,0.776,0.547,-91.553,-10.681,-99.854
-1.133,0.744,0.616,-22.705,-2.930,-44.556
-1.163,0.675,0.641,34.424,-3.052,3.052
-1.189,0.576,0.624,63.477,-10.559,31.677
-1.138,0.500,0.587,58.105,-23.071,35.645
-1.105,0.450,0.526,25.269,-34.790,16.479
-1.066,0.434,0.449,-17.029,-40.466,-16.113
-1.037,0.458,0.360,-54.626,-39.001,-48.340
-0.994,0.528,0.319,-80.933,-36.072,-68.909
-0.969,0.630,0.327,-93.506,-35.889,-75.989
-0.962,0.678,0.347,-93.933,-38.391,-69.458
-0.970,0.682,0.351,-81.116,-44.250,-54.199
-0.968,0.668,0.325,-60.364,-51.514,-37.048
-0.952,0.670,0.303,-41.138,-57.190,-23.315
-0.922,0.666,0.271,-35.583,-61.401,-16.235
-0.893,0.633,0.244,-48.218,-63.538,-18.250
-0.875,0.583,0.216,-73.486,-64.087,-28.259
-0.850,0.542,0.198,-97.961,-64.026,-40.649
-0.781,0.546,0.190,-110.291,-62.988,-49.133
-0.742,0.577,0.192,-108.276,-59.509,-50.598
-0.713,0.616,0.204,-91.492,-57.007,-39.673
-0.711,0.626,0.210,-58.044,-54.932,-18.005
-0.724,0.631,0.212,-19.470,-51.086,6.531
-0.753,0.637,0.214,8.118,-46.997,25.208
-0.766,0.632,0.219,14.160,-44.434,31.433
-0.790,0.589,0.208,-2.197,-45.715,23.071
-0.805,0.554,0.179,-28.076,-46.936,5.249
-0.785,0.555,0.154,-50.903,-45.654,-14.526
-0.759,0.612,0.156,-63.293,-43.030,-30.640
-0.741,0.681,0.159,-61.646,-39.124,-35.889
-0.714,0.724,0.146,-45.044,-35.278,-28.076
-0.704,0.726,0.118,-19.348,-30.090,-11.963
-0.694,0.708,0.095,5.127,-23.071,2.563
-0.699,0.707,0.100,21.301,-15.442,10.010
-0.694,0.720,0.132,24.719,-9.399,11.108
-0.704,0.713,0.168,17.151,-7.141,7.812
-0.712,0.693,0.195,5.859,-7.080,1.892
-0.714,0.663,0.206,-2.747,-8.484,-3.357
-0.709,0.644,0.202,-6.775,-11.169,-8.057
-0.694,0.635,0.201,-6.042,-13.794,-11.841
-0.686,0.634,0.182,-0.916,-17.151,-13.916
-0.657,0.680,0.154,9.827,-18.433,-12.939
-0.630,0.748,0.140,19.165,-16.602,-9.094

-2.196,0.498,0.123,118.896,60.547,44.434
-2.342,0.520,0.169,126.221,61.035,37.048
-2.447,0.542,0.163,125.854,62.622,30.273
-2.606,0.518,0.104,122.559,68.909,25.391
-2.759,0.478,-0.031,122.009,79.163,23.010
-2.801,0.536,-0.194,128.174,95.032,22.522
-2.805,0.644,-0.350,139.893,122.803,25.452
-2.797,0.744,-0.327,160.583,157.837,34.973
-2.797,0.788,-0.247,201.294,190.552,50.354
-2.667,0.783,-0.121,251.404,212.891,71.350
-2.551,0.703,0.009,297.607,226.501,87.646
-2.341,0.621,0.208,340.576,236.023,93.445
-2.502,0.543,0.425,382.507,240.601,93.140
-2.938,0.404,0.323,409.668,222.046,111.084
-3.276,0.183,-0.073,413.147,161.926,143.311
-3.450,-0.166,-0.639,382.629,79.224,169.800
-3.170,-0.798,-1.208,318.176,-5.981,186.035
-2.624,-1.514,-1.710,241.211,-79.590,185.852
-1.686,-2.270,-2.069,187.134,-128.052,168.579
-0.356,-3.034,-2.369,182.922,-136.292,150.269
1.079,-3.230,-2.356,230.225,-78.613,117.737
2.406,-2.794,-1.682,293.884,45.227,65.369
3.555,-2.049,-0.125,310.608,198.181,2.319
4.000,-1.527,1.771,247.803,302.979,-59.814
4.000,-1.572,2.970,146.240,334.229,-115.540
4.000,-1.349,3.759,68.970,336.792,-194.275
4.000,-0.431,4.000,31.006,312.439,-279.297
4.000,0.926,4.000,19.348,296.326,-335.999
4.000,2.820,4.000,-20.813,275.879,-381.897
3.466,4.000,3.681,-110.046,191.772,-401.550
2.422,4.000,2.964,-156.799,91.003,-329.468
1.927,4.000,2.459,-128.357,-1.404,-154.663
2.323,3.651,2.136,-82.153,-102.966,57.800
3.068,1.468,1.918,-70.984,-197.998,213.684
3.554,-0.350,1.713,-76.050,-252.258,275.818
3.597,-1.333,1.393,-53.772,-258.179,270.325
3.245,-1.507,1.025,-8.362,-243.835,230.408
2.837,-1.453,0.707,25.940,-229.065,181.702
2.338,-1.225,0.680,31.921,-207.642,134.155
1.823,-0.914,0.723,6.836,-193.542,92.102
1.407,-0.634,0.552,-47.180,-194.702,66.956
1.142,-0.531,0.288,-102.905,-194.275,63.416
0.829,-0.487,0.059,-137.695,-183.105,69.336
0.518,-0.536,-0.091,-149.475,-165.039,81.482
0.210,-0.667,-0.180,-147.949,-142.761,90.027
-0.106,-0.810,-0.220,-143.982,-120.239,82.397
-0.421,-0.848,-0.243,-139.954,-99.548,61.829
-0.818,-0.788,-0.278,-138.855,-79.895,32.349
-1.287,-0.615,-0.322,-146.301,-61.951,-1.465
-1.754,-0.337,-0.369,-162.048,-49.072,-32.043
-1.991,-0.101,-0.370,-182.983,-47.668,-51.208
-1.988,0.084,-0.268,-201.538,-51.025,-61.768
-2.033,0.187,-0.145,-208.252,-49.438,-64.941
-2.074,0.168,-0.003,-202.576,-41.504,-56.396
-2.020,0.131,0.177,-188.660,-31.616,-40.039
-2.060,0.115,0.336,-172.729,-21.362,-26.794
-2.046,0.078,0.407,-168.152,-14.282,-18.616
-1.983,0.124,0.499,-183.105,-19.592,-19.531
-1.902,0.134,0.535,-212.097,-34.912,-27.588
-1.718,0.170,0.531,-244.019,-56.091,-33.569
-1.550,0.172,0.468,-266.235,-77.209,-36.438
-1.380,0.102,0.403,-271.606,-91.858,-31.860
-1.252,-0.009,0.376,-252.502,-88.501,-17.090
-1.191,-0.037,0.436,-208.252,-68.115,-1.465
-1.185,0.006,0.531,-152.710,-44.067,11.536
-1.190,0.054,0.583,-108.459,-26.917,24.048
-1.182,0.141,0.627,-85.266,-21.851,30.334
-1.183,0.175,0.597,-83.679,-23.987,24.597
-1.188,0.202,0.521,-100.647,-32.288,4.272
-1.151,0.250,0.452,-123.657,-40.771,-25.696
-1.115,0.333,0.412,-141.113,-47.302,-55.054
-1.119,0.393,0.338,-145.874,-47.974,-69.641
-1.099,0.393,0.315,-133.423,-41.931,-62.805
-1.088,0.355,0.356,-101.929,-31.067,-45.837
-1.111,0.322,0.422,-61.401,-22.827,-24.963
-1.107,0.247,0.469,-23.437,-22.705,-4.517
-1.106,0.207,0.460,0.610,-29.663,6.042
-1.083,0.207,0.413,7.935,-37.598,3.967
-1.050,0.222,0.340,-3.296,-45.166,-8.240
-1.025,0.256,0.247,-26.123,-50.232,-28.015
-1.010,0.310,0.209,-49.438,-48.096,-47.546
-1.018,0.365,0.214,-64.697,-41.504,-57.068
-1.029,0.371,0.250,-61.707,-31.860,-55.725
-1.043,0.395,0.316,-40.588,-22.888,-45.593
-1.050,0.442,0.393,-8.301,-18.433,-29.602
-1.058,0.482,0.422,23.376,-18.555,-12.268
-1.057,0.504,0.402,41.931,-21.729,-0.183
-1.043,0.509,0.362,41.138,-25.879,3.540
-1.026,0.498,0.326,25.085,-31.189,-1.648
-1.016,0.499,0.298,4.761,-36.194,-11.169
-0.991,0.536,0.268,-8.911,-40.283,-20.203
-0.955,0.566,0.208,-14.282,-41.870,-23.621
-0.921,0.564,0.144,-11.108,-39.917,-20.081
-0.888,0.545,0.092,-0.610,-34.973,-12.268
-0.866,0.540,0.083,13.489,-27.100,-4.517
-0.861,0.536,0.106,23.987,-20.142,0.488
-0.858,0.542,0.153,28.015,-16.479,3.113
-0.862,0.543,0.210,24.902,-14.771,4.761
-0.858,0.527,0.275,18.372,-15.076,6.836
-0.871,0.456,0.290,13.000,-16.052,8.484
-0.879,0.390,0.291,11.169,-17.151,8.118
-0.863,0.357,0.265,11.108,-19.531,3.845
-0.847,0.351,0.221,9.338,-22.278,-2.747
-0.819,0.399,0.194,7.629,-23.865,-9.521
-0.802,0.475,0.182,6.531,-23.315,-14.282
-0.795,0.545,0.192,5.249,-21.973,-14.648
-0.799,0.576,0.209,4.333,-21.301,-10.925
-0.799,0.593,0.229,3.235,-22.034,-5.493
-0.818,0.563,0.232,1.526,-24.475,-0.305
-0.823,0.508,0.206,0.793,-26.672,3.113
-0.822,0.469,0.166,1.587,-25.513,1.892
-0.825,0.443,0.123,3.052,-21.301,-2.502
-0.825,0.435,0.095,4.700,-15.320,-8.545
-0.810,0.478,0.101,8.423,-8.667,-14.709
-0.796,0.575,0.151,11.902,-2.808,-17.151
-0.799,0.621,0.195,9.949,-1.099,-13.306
-0.806,0.578,0.211,3.296,-3.662,-6.531
-0.808,0.527,0.209,-1.038,-5.859,-3.479
-0.806,0.516,0.219,-1.587,-6.653,-3.357

-2.153,0.291,0.080,143.677,112.610,32.410
-2.278,0.208,0.063,150.757,130.859,31.433
-2.347,0.145,0.034,160.156,147.949,32.166
-2.429,0.078,0.028,174.500,160.095,36.377
-2.581,-0.006,-0.031,200.928,173.645,49.622
-2.665,-0.094,-0.071,243.713,191.101,67.322
-2.699,-0.225,-0.113,293.701,204.956,80.505
-2.823,-0.366,-0.162,331.970,215.820,86.121
-2.961,-0.437,-0.238,348.450,220.947,83.984
-3.327,-0.482,-0.336,350.220,223.328,78.491
-3.946,-0.644,-0.529,348.511,225.830,87.830
-4.000,-0.974,-0.751,342.407,207.703,113.342
-4.000,-1.391,-0.928,311.462,159.546,129.578
-4.000,-1.891,-1.121,235.779,84.106,114.685
-3.625,-2.481,-1.475,131.836,1.770,68.604
-1.995,-2.825,-2.088,49.072,-73.486,6.531
-0.037,-2.916,-2.732,55.908,-105.286,-37.354
1.908,-2.593,-2.857,158.020,-30.884,-55.298
3.727,-1.850,-1.671,257.080,135.620,-86.792
4.000,-1.208,0.348,255.371,295.837,-131.287
4.000,-0.772,2.167,156.128,380.005,-160.889
4.000,-0.659,3.524,11.108,380.981,-193.970
4.000,0.336,4.000,-94.666,365.845,-283.691
4.000,2.253,4.000,-122.070,349.548,-379.822
4.000,4.000,4.000,-84.839,324.341,-407.043
3.160,4.000,4.000,-28.381,213.318,-311.829
2.518,4.000,3.469,37.659,67.383,-133.423
2.656,3.997,2.738,29.846,-77.759,70.374
3.488,1.846,2.035,-61.340,-215.332,218.750
4.000,-0.321,1.371,-150.513,-293.030,280.212
4.000,-1.578,0.993,-161.499,-293.884,283.142
3.544,-1.836,0.721,-100.220,-258.484,246.033
3.038,-1.630,0.500,-35.339,-227.783,200.073
2.490,-1.330,0.455,-5.493,-197.693,158.752
1.921,-0.972,0.547,-14.832,-171.143,119.080
1.454,-0.787,0.497,-58.716,-159.668,92.529
1.068,-0.751,0.287,-112.366,-160.034,77.515
0.768,-0.726,0.063,-148.743,-157.471,69.031
0.398,-0.725,-0.084,-152.527,-139.099,66.101
0.037,-0.743,-0.160,-136.169,-111.450,62.439
-0.224,-0.670,-0.135,-118.286,-85.571,50.659
-0.560,-0.589,-0.045,-105.713,-61.951,34.119
-0.839,-0.502,0.110,-103.638,-45.776,20.020
-1.158,-0.429,0.210,-112.305,-40.466,6.714
-1.485,-0.382,0.189,-130.432,-42.908,-5.188
-1.767,-0.347,0.143,-153.931,-47.607,-18.127
-1.930,-0.275,0.090,-174.683,-50.903,-33.936
-2.000,-0.136,0.051,-184.692,-51.941,-49.500
-1.998,0.013,0.024,-180.176,-52.368,-60.730
-1.911,0.201,0.062,-166.931,-52.673,-60.608
-1.847,0.384,0.152,-149.963,-52.124,-49.438
-1.814,0.501,0.265,-134.155,-43.335,-33.325
-1.783,0.589,0.400,-128.174,-33.997,-19.165
-1.766,0.563,0.533,-133.179,-26.306,-7.263
-1.731,0.453,0.640,-144.531,-18.433,5.798
-1.696,0.304,0.766,-154.419,-14.343,13.367
-1.645,0.155,0.859,-160.278,-16.541,14.221
-1.569,0.052,0.893,-164.612,-24.048,10.071
-1.408,0.069,0.862,-175.171,-34.241,1.404
-1.394,0.105,0.819,-193.359,-43.762,-20.874
-1.344,0.130,0.713,-212.402,-48.340,-46.204
-1.318,0.195,0.638,-222.290,-52.856,-65.186
-1.295,0.210,0.596,-212.341,-51.697,-70.557
-1.281,0.208,0.607,-180.237,-39.978,-62.256
-1.282,0.211,0.616,-133.545,-28.259,-49.072
-1.271,0.255,0.607,-88.562,-22.888,-32.715
-1.249,0.308,0.591,-56.396,-25.818,-18.555
-1.228,0.353,0.579,-45.410,-33.020,-11.963
-1.214,0.378,0.549,-59.814,-43.884,-14.526
-1.196,0.388,0.497,-93.628,-59.326,-26.855
-1.165,0.323,0.404,-134.705,-74.402,-47.913
-1.120,0.355,0.348,-167.114,-87.036,-75.012
-1.036,0.441,0.247,-183.472,-92.896,-92.712
-0.954,0.551,0.100,-178.833,-92.529,-92.590
-0.867,0.642,0.016,-150.574,-79.529,-75.317
-0.865,0.711,0.038,-113.586,-57.800,-50.781
-0.871,0.756,0.138,-79.468,-37.720,-24.658
-0.913,0.687,0.272,-59.143,-28.076,-1.770
-0.957,0.531,0.380,-55.237,-30.823,9.766
-0.968,0.382,0.430,-61.401,-39.673,6.470
-0.945,0.301,0.430,-75.317,-50.720,-8.850
-0.894,0.306,0.364,-91.309,-61.523,-29.114
-0.812,0.406,0.260,-100.586,-69.397,-47.607
-0.760,0.523,0.160,-86.121,-71.045,-50.232
-0.737,0.618,0.088,-49.377,-61.707,-33.142
-0.770,0.657,0.064,-10.132,-49.744,-12.451
-0.794,0.724,0.103,17.761,-39.612,1.953
-0.817,0.744,0.166,24.414,-35.095,8.972
-0.842,0.685,0.197,6.470,-36.621,5.188
-0.846,0.633,0.201,-21.423,-43.701,-7.263
-0.800,0.637,0.169,-45.410,-52.673,-21.973
-0.763,0.652,0.092,-57.617,-61.340,-31.433
-0.712,0.671,-0.003,-47.180,-65.002,-26.733
-0.690,0.677,-0.093,-20.996,-61.096,-12.756
-0.683,0.658,-0.155,4.944,-52.856,-0.244
-0.679,0.663,-0.156,20.386,-44.556,6.104
-0.679,0.684,-0.139,19.287,-38.574,6.653
-0.691,0.667,-0.139,5.188,-34.302,3.052
-0.694,0.604,-0.152,-11.230,-28.870,-3.174
-0.699,0.545,-0.139,-22.095,-20.813,-9.460
-0.696,0.552,-0.111,-25.146,-11.108,-15.930
-0.695,0.634,-0.055,-19.287,-3.357,-17.761
-0.724,0.691,0.000,-7.690,0.977,-10.864
-0.752,0.666,0.025,4.761,2.930,0.916
-0.778,0.644,0.048,14.282,3.967,9.338
-0.794,0.628,0.079,14.832,4.089,10.132
-0.803,0.613,0.118,6.409,1.282,5.005
-0.808,0.585,0.125,-2.258,-2.502,-1.343
-0.812,0.595,0.114,-6.348,-4.639,-5.920
-0.793,0.630,0.102,-6.592,-4.761,-9.338
-0.779,0.664,0.068,-5.615,-4.028,-9.216
-0.766,0.697,0.032,-3.662,-2.930,-6.714
-0.752,0.731,0.002,0.122,-0.732,-4.028
-0.740,0.760,-0.010,4.028,1.648,-0.122
-0.730,0.757,-0.014,4.028,2.502,4.089
-0.726,0.722,-0.027,0.427,1.709,6.165
-0.714,0.704,-0.020,-2.991,1.648,5.127
-0.707,0.704,-0.005,-5.615,2.136,3.296
-0.715,0.689,-0.001,-7.996,3.723,2.441
