aX,aY,aZ,gX,gY,gZ
-1.972,0.765,-1.626,-384.521,-11.230,-159.607
-2.348,1.141,-2.112,-433.838,-3.296,-162.476
-2.699,1.454,-2.621,-466.919,10.193,-147.034
-2.979,1.634,-3.099,-434.998,37.781,-102.783
-3.039,1.740,-3.469,-333.862,85.815,-39.795
-2.988,1.971,-3.606,-228.882,151.489,14.038
-2.744,2.425,-3.377,-173.523,224.915,51.575
-2.464,2.974,-2.977,-165.100,290.344,88.379
-2.044,3.287,-2.736,-192.566,342.407,128.113
-1.636,3.525,-2.528,-241.516,382.568,163.574
-1.119,3.556,-2.454,-286.255,414.978,191.650
-0.662,3.487,-2.387,-308.472,455.261,210.571
-0.369,3.479,-2.272,-302.673,498.169,227.661
-0.259,3.442,-2.169,-269.592,528.320,248.718
-0.220,3.214,-2.063,-223.083,534.119,277.527
-0.244,3.030,-2.029,-185.669,520.935,297.913
-0.181,2.802,-1.946,-173.401,494.202,302.551
0.002,2.523,-1.793,-174.011,456.543,295.959
0.233,2.481,-1.842,-169.189,412.781,276.428
0.628,2.489,-2.005,-153.320,366.516,254.639
0.995,2.578,-2.063,-129.639,331.360,238.708
1.379,2.642,-2.028,-100.281,306.396,231.262
1.658,2.571,-1.897,-75.989,282.532,236.328
1.824,2.363,-1.704,-67.749,259.033,243.958
1.975,2.053,-1.547,-76.416,229.797,244.995
2.195,1.647,-1.429,-89.966,196.472,242.432
2.435,1.171,-1.203,-103.516,167.053,233.093
2.610,0.650,-0.797,-109.924,139.832,212.524
2.689,0.311,-0.374,-98.022,106.812,186.523
2.721,0.154,-0.129,-70.129,72.632,167.908
2.774,0.028,-0.122,-44.006,62.256,153.992
2.600,-0.140,0.061,-34.729,65.125,130.981
2.358,-0.356,0.343,-35.034,49.011,97.839
2.026,-0.476,0.562,-29.846,21.118,59.875
1.686,-0.479,0.693,-9.216,-14.465,26.184
1.353,-0.404,0.695,22.949,-54.932,-0.610
1.119,-0.225,0.573,55.420,-92.957,-24.231
0.838,-0.043,0.386,76.599,-122.131,-46.814
0.622,0.060,0.204,84.534,-142.334,-72.083
0.398,0.160,0.067,85.693,-160.339,-96.802
0.202,0.273,-0.043,86.548,-175.964,-117.615
0.036,0.357,-0.166,88.562,-192.322,-132.996
-0.104,0.450,-0.333,91.064,-209.412,-147.827
-0.190,0.601,-0.582,98.022,-223.999,-165.405
-0.290,0.790,-0.853,112.732,-234.802,-180.786
-0.372,0.937,-1.102,138.367,-238.647,-192.200
-0.478,1.047,-1.263,170.654,-231.506,-201.843
-0.581,1.188,-1.318,202.881,-215.698,-212.158
-0.668,1.411,-1.319,228.333,-198.425,-220.642
-0.751,1.681,-1.302,238.708,-183.105,-221.863
-0.875,1.865,-1.274,221.924,-172.913,-217.529
-0.965,1.963,-1.254,185.608,-170.288,-214.172
-1.012,1.980,-1.252,149.719,-170.532,-210.571
-1.055,1.892,-1.250,129.395,-168.091,-202.881
-1.090,1.734,-1.232,130.554,-163.025,-192.383
-1.081,1.533,-1.262,152.710,-158.447,-184.448
-0.982,1.405,-1.333,192.017,-150.024,-182.800
-0.812,1.507,-1.381,236.450,-131.104,-183.228
-0.770,1.719,-1.319,272.705,-100.464,-174.133
-0.800,1.904,-1.195,289.001,-67.017,-155.029
-0.928,1.968,-1.013,275.146,-38.208,-136.108
-1.007,1.919,-0.840,236.694,-23.010,-122.742
-1.079,1.799,-0.713,193.420,-18.311,-113.220
-1.094,1.591,-0.638,162.964,-20.874,-104.919
-1.090,1.362,-0.577,153.442,-24.475,-98.938
-1.049,1.149,-0.507,168.152,-25.513,-95.215
-0.993,0.972,-0.437,207.275,-23.315,-93.445
-0.890,0.919,-0.340,264.893,-19.409,-91.919
-0.791,0.938,-0.202,331.726,-12.756,-86.487
-0.726,0.973,-0.026,393.677,-3.845,-73.792
-0.703,1.022,0.158,442.566,4.639,-58.167
-0.700,1.040,0.327,472.290,9.094,-40.771
-0.661,1.007,0.457,479.065,7.629,-23.987
-0.704,0.973,0.565,466.553,-0.427,-15.869
-0.674,0.906,0.584,441.956,-11.414,-12.451
-0.645,0.842,0.579,413.025,-23.987,-13.428
-0.608,0.774,0.562,382.996,-35.339,-16.479
-0.578,0.703,0.522,350.037,-45.349,-18.494
-0.543,0.656,0.493,314.636,-54.321,-20.386
-0.520,0.634,0.475,282.410,-60.303,-23.621
-0.494,0.598,0.468,258.423,-62.744,-26.855
-0.474,0.568,0.457,243.286,-63.477,-28.137
-0.466,0.542,0.439,236.877,-59.753,-26.855
-0.463,0.520,0.424,236.572,-51.392,-22.217
-0.445,0.507,0.439,235.962,-41.870,-16.052
-0.446,0.513,0.481,231.201,-34.119,-9.644
-0.447,0.502,0.535,223.877,-28.381,-1.953
-0.452,0.469,0.598,214.661,-24.963,6.897
-0.477,0.395,0.686,204.163,-24.170,13.428
-0.488,0.286,0.738,191.711,-28.748,16.357
-0.478,0.199,0.751,178.711,-39.795,14.282
-0.450,0.138,0.723,170.044,-51.758,7.690
-0.408,0.110,0.666,161.682,-59.265,-2.319
-0.382,0.119,0.609,146.118,-61.707,-14.832
-0.369,0.186,0.575,122.192,-59.509,-28.320
-0.366,0.256,0.555,92.346,-53.833,-38.818
-0.390,0.318,0.576,61.890,-46.021,-43.518
-0.413,0.336,0.636,36.377,-37.292,-42.603
-0.440,0.309,0.724,19.409,-31.555,-36.987
-0.465,0.264,0.802,13.245,-30.640,-30.579
-0.459,0.219,0.846,17.029,-33.569,-25.146
-0.448,0.156,0.859,26.978,-38.269,-22.034
-0.443,0.133,0.853,40.466,-41.016,-23.437
-0.427,0.177,0.828,55.603,-41.016,-27.771
-0.414,0.256,0.816,67.444,-36.438,-31.738
-0.423,0.342,0.821,71.045,-25.208,-33.997
-0.446,0.394,0.842,62.256,-12.512,-33.630
-0.464,0.398,0.901,43.579,-3.357,-30.945
-0.491,0.359,0.970,22.156,1.709,-28.259
-0.484,0.290,1.028,4.517,1.953,-26.001
-0.475,0.229,1.052,-4.089,-2.380,-25.635
-0.462,0.199,1.052,-1.099,-6.836,-25.757
-0.445,0.192,1.052,9.460,-11.230,-25.818
-0.429,0.201,1.037,21.118,-16.418,-25.879
-0.400,0.226,0.985,29.602,-22.278,-25.391
-0.353,0.242,0.899,31.189,-25.452,-25.391
-0.337,0.244,0.828,23.926,-22.705,-26.733
-0.326,0.245,0.790,11.353,-16.602,-29.114
-0.317,0.225,0.781,-1.831,-10.437,-30.762

-1.512,1.273,-0.568,-306.763,76.965,-137.939
-1.894,1.547,-0.689,-300.720,80.505,-127.441
-2.304,1.837,-0.817,-299.561,85.022,-109.680
-2.808,2.202,-0.938,-320.557,91.736,-83.984
-3.322,2.430,-1.067,-371.460,94.910,-51.819
-3.534,2.590,-1.238,-432.312,89.355,-27.100
-3.742,2.664,-1.517,-479.858,85.815,4.944
-3.533,2.990,-1.778,-483.765,94.360,45.532
-3.241,3.446,-1.975,-428.284,127.991,104.187
-2.851,3.929,-1.918,-347.656,185.425,177.185
-2.462,4.000,-1.643,-279.480,252.441,245.483
-2.049,4.000,-1.239,-249.573,312.317,300.171
-1.631,4.000,-0.919,-270.081,348.938,348.633
-1.144,4.000,-0.803,-312.378,365.723,391.113
-0.646,4.000,-0.834,-353.882,367.676,427.612
-0.208,4.000,-0.979,-386.963,360.291,451.294
0.243,4.000,-1.232,-396.606,346.375,468.628
0.592,4.000,-1.435,-383.789,335.449,483.154
0.758,3.704,-1.520,-369.873,334.412,481.445
0.979,3.052,-1.537,-351.135,334.045,460.510
1.106,2.639,-1.543,-307.312,324.829,420.654
1.286,2.506,-1.635,-235.901,299.683,380.188
1.687,2.688,-1.877,-174.438,258.728,342.285
2.360,2.937,-2.037,-143.921,215.393,299.988
2.787,2.771,-2.011,-133.911,196.045,280.701
2.934,2.336,-1.819,-143.616,195.862,271.362
2.977,1.783,-1.521,-166.077,193.176,251.343
2.935,1.177,-1.186,-173.401,185.547,224.976
2.760,0.564,-0.866,-156.189,175.415,196.472
2.522,0.050,-0.538,-124.084,156.738,158.142
2.279,-0.037,-0.222,-82.092,129.333,116.089
1.920,0.026,-0.095,-35.278,109.497,100.281
1.783,-0.017,-0.056,5.737,118.286,100.586
1.425,-0.006,0.211,13.428,123.657,85.327
1.059,0.004,0.467,-4.150,99.121,56.519
0.847,0.058,0.512,-22.827,62.927,26.062
0.629,0.115,0.526,-28.442,27.649,8.484
0.363,0.162,0.532,-20.508,0.061,2.258
0.234,0.152,0.432,-8.911,-21.057,0.183
-0.165,0.000,0.262,-6.470,-32.104,-1.221
-0.336,0.008,0.195,-6.104,-31.921,-14.282
-0.399,0.010,0.194,13.000,-42.603,-39.490
-0.477,0.120,0.159,34.058,-52.734,-48.889
-0.578,0.192,0.142,45.105,-62.622,-55.237
-0.513,0.261,0.037,43.396,-73.486,-65.186
-0.660,0.331,0.018,37.170,-87.769,-75.623
-0.623,0.355,-0.110,40.894,-98.328,-84.106
-0.670,0.355,-0.211,54.626,-102.356,-95.337
-0.634,0.390,-0.332,75.562,-106.384,-108.887
-0.606,0.477,-0.432,102.661,-103.455,-122.742
-0.541,0.664,-0.518,131.165,-96.313,-131.836
-0.545,0.818,-0.544,155.029,-83.923,-132.690
-0.598,0.870,-0.491,166.565,-69.275,-131.042
-0.688,0.919,-0.394,162.292,-58.044,-133.057
-0.779,0.955,-0.291,143.311,-56.030,-138.062
-0.857,0.906,-0.257,117.004,-64.819,-142.334
-0.879,0.787,-0.289,94.666,-80.627,-146.851
-0.862,0.619,-0.366,85.083,-97.229,-155.457
-0.842,0.480,-0.432,95.886,-109.375,-169.067
-0.746,0.458,-0.481,130.615,-115.601,-186.707
-0.582,0.613,-0.529,187.927,-111.206,-200.745
-0.509,0.811,-0.524,254.150,-90.149,-200.317
-0.536,1.005,-0.440,317.505,-58.167,-190.063
-0.649,1.227,-0.271,358.459,-22.461,-178.894
-0.793,1.341,-0.091,352.966,1.587,-173.706
-0.921,1.354,0.050,304.749,4.944,-178.589
-0.976,1.271,0.101,244.873,-6.897,-190.552
-0.983,1.092,0.099,198.242,-26.245,-203.796
-0.921,0.954,0.072,178.955,-47.302,-217.163
-0.829,0.877,0.057,191.345,-64.758,-228.760
-0.724,0.882,0.057,230.103,-75.439,-234.863
-0.584,1.036,0.101,287.231,-74.951,-231.689
-0.492,1.313,0.158,350.342,-60.608,-210.022
-0.500,1.529,0.241,400.757,-37.415,-167.725
-0.559,1.542,0.352,426.025,-11.902,-117.554
-0.645,1.423,0.450,420.776,8.240,-76.172
-0.743,1.214,0.517,391.602,22.522,-54.016
-0.797,0.991,0.571,351.746,30.334,-49.255
-0.824,0.776,0.589,313.416,33.203,-56.763
-0.798,0.661,0.601,284.363,33.691,-70.984
-0.802,0.628,0.612,270.996,30.823,-83.008
-0.728,0.661,0.653,276.001,28.137,-82.336
-0.711,0.717,0.683,294.556,27.100,-74.524
-0.680,0.784,0.691,310.608,29.541,-59.937
-0.661,0.804,0.679,310.059,34.119,-44.189
-0.674,0.814,0.668,287.842,41.199,-33.447
-0.681,0.786,0.678,248.413,50.232,-28.992
-0.694,0.697,0.705,197.632,57.861,-28.503
-0.707,0.572,0.752,146.973,62.622,-30.457
-0.740,0.458,0.827,109.253,65.002,-35.400
-0.767,0.327,0.922,92.773,62.073,-38.025
-0.777,0.217,0.983,98.511,52.368,-37.476
-0.775,0.165,0.996,120.850,38.757,-36.560
-0.734,0.189,1.004,146.301,28.809,-36.621
-0.707,0.265,0.984,158.875,22.522,-36.621
-0.662,0.394,1.005,153.137,19.531,-36.377
-0.658,0.450,1.035,130.310,18.250,-33.875
-0.657,0.422,1.070,98.206,14.343,-30.212
-0.650,0.371,1.099,69.336,7.446,-29.419
-0.641,0.304,1.106,51.270,0.305,-31.372
-0.627,0.247,1.089,45.166,-7.996,-33.875
-0.604,0.198,1.052,49.255,-17.090,-36.560
-0.584,0.182,1.007,59.021,-26.123,-39.429
-0.545,0.198,0.964,70.190,-33.447,-44.128
-0.512,0.244,0.911,77.209,-38.330,-49.500
-0.474,0.291,0.866,77.087,-40.588,-53.711
-0.435,0.403,0.868,71.716,-39.124,-56.335
-0.422,0.515,0.896,60.852,-34.180,-52.490
-0.437,0.536,0.920,43.762,-34.546,-39.551
-0.421,0.445,0.898,26.794,-40.466,-25.513
-0.413,0.310,0.862,16.968,-46.448,-16.968
-0.405,0.180,0.815,14.771,-50.964,-16.846
-0.401,0.124,0.772,18.188,-55.298,-23.865
-0.397,0.118,0.747,27.771,-59.387,-33.508
-0.371,0.155,0.716,38.635,-62.744,-41.992
-0.332,0.227,0.696,48.523,-64.636,-46.753
-0.307,0.297,0.689,57.068,-61.707,-47.546
-0.295,0.363,0.713,59.998,-55.908,-43.396
-0.271,0.386,0.740,54.749,-49.988,-35.583

-2.011,0.781,-0.630,-456.726,71.594,-159.790
-2.503,1.267,-0.793,-507.141,49.988,-164.490
-3.027,1.795,-0.936,-537.781,36.682,-144.897
-3.520,2.317,-1.039,-554.932,24.780,-96.863
-3.878,2.613,-1.139,-574.707,11.902,-23.987
-4.000,2.768,-1.210,-601.318,-1.953,46.265
-4.000,2.891,-1.379,-631.531,-13.550,99.854
-3.999,3.171,-1.507,-665.527,-16.907,137.573
-3.682,3.702,-1.681,-678.772,4.211,164.246
-3.241,4.000,-1.803,-645.264,56.946,199.646
-2.732,4.000,-1.938,-569.275,131.714,243.591
-2.266,4.000,-2.015,-476.135,213.867,291.016
-1.747,4.000,-2.147,-390.503,289.734,333.618
-1.041,4.000,-2.307,-333.557,347.229,372.803
-0.362,4.000,-2.418,-304.810,388.184,407.654
0.197,4.000,-2.388,-285.278,411.987,441.223
0.780,4.000,-1.888,-262.634,412.720,463.074
1.330,4.000,-1.393,-225.098,375.854,470.642
1.711,3.640,-1.185,-179.016,318.237,457.031
2.112,3.268,-0.985,-149.048,260.193,424.988
2.725,3.217,-0.837,-138.184,211.182,385.376
3.224,2.801,-0.857,-141.968,174.316,356.140
3.687,2.134,-0.764,-161.133,156.738,329.834
3.658,1.747,-0.478,-161.438,145.630,289.490
3.513,1.304,-0.386,-110.474,120.300,268.677
3.396,0.880,-0.414,-44.189,89.294,252.136
3.210,0.611,-0.198,-17.578,69.458,212.158
2.839,0.311,0.227,-33.447,57.983,162.109
2.229,0.013,0.602,-60.547,31.799,120.850
1.843,-0.266,0.531,-79.895,10.681,93.506
1.492,-0.350,0.282,-77.759,20.874,66.162
1.060,-0.285,0.301,-58.228,23.071,31.006
0.526,-0.078,0.323,-26.245,19.775,1.526
0.096,0.167,0.212,2.441,9.827,-15.198
-0.276,0.309,0.079,18.188,-1.282,-21.362
-0.620,0.317,0.015,17.883,-6.775,-25.391
-0.893,0.263,0.021,9.460,-10.498,-34.302
-1.040,0.215,0.030,6.531,-15.320,-43.335
-1.091,0.177,0.021,14.282,-20.386,-50.171
-1.095,0.153,-0.011,30.334,-23.865,-56.702
-1.145,0.224,-0.089,52.979,-23.743,-64.514
-1.107,0.461,-0.224,74.890,-23.437,-69.946
-1.147,0.584,-0.236,80.811,-20.630,-66.101
-1.161,0.690,-0.293,56.030,-21.301,-66.040
-1.222,0.719,-0.352,23.010,-18.616,-72.510
-1.223,0.600,-0.354,12.939,-14.221,-59.448
-1.237,0.474,-0.349,17.273,-11.108,-52.795
-1.198,0.392,-0.342,30.151,-8.667,-50.903
-1.144,0.328,-0.357,48.096,-8.972,-52.673
-1.052,0.311,-0.421,67.505,-8.545,-57.251
-0.975,0.300,-0.482,82.520,-5.371,-62.317
-0.925,0.290,-0.521,92.651,0.122,-67.932
-0.872,0.291,-0.542,100.037,7.996,-73.486
-0.844,0.310,-0.519,104.309,16.602,-78.308
-0.842,0.359,-0.468,109.863,23.804,-82.397
-0.859,0.358,-0.401,118.896,28.931,-84.106
-0.884,0.343,-0.339,131.409,29.541,-79.651
-0.907,0.281,-0.312,149.597,28.381,-75.745
-0.898,0.222,-0.291,169.983,28.381,-76.050
-0.899,0.174,-0.292,189.148,29.175,-82.642
-0.879,0.174,-0.267,207.275,30.151,-94.177
-0.845,0.189,-0.235,224.731,30.457,-105.286
-0.837,0.209,-0.193,241.882,30.396,-114.136
-0.819,0.233,-0.147,256.287,30.334,-121.033
-0.781,0.322,-0.090,268.738,31.860,-126.770
-0.767,0.422,-0.032,280.396,36.438,-126.709
-0.760,0.556,0.028,291.382,42.786,-118.530
-0.794,0.657,0.089,300.476,48.462,-100.891
-0.834,0.632,0.120,302.063,53.528,-78.369
-0.869,0.565,0.131,291.687,55.420,-62.927
-0.885,0.507,0.150,267.944,53.162,-63.110
-0.876,0.474,0.189,237.549,48.523,-73.120
-0.866,0.430,0.239,209.534,41.687,-85.449
-0.894,0.409,0.304,193.115,35.217,-93.323
-0.910,0.425,0.409,192.200,31.311,-96.191
-0.926,0.434,0.492,203.979,27.771,-93.079
-0.901,0.469,0.513,220.886,20.996,-83.679
-0.858,0.510,0.472,237.000,12.634,-69.824
-0.808,0.557,0.391,247.192,9.766,-55.786
-0.754,0.589,0.313,249.390,13.977,-43.762
-0.694,0.583,0.255,243.408,22.400,-33.081
-0.647,0.548,0.262,231.750,37.048,-21.729
-0.645,0.462,0.294,218.933,59.753,-12.207
-0.695,0.396,0.415,205.627,85.144,-6.470
-0.739,0.287,0.578,197.937,104.553,-0.427
-0.774,0.191,0.715,196.655,114.807,6.592
-0.802,0.136,0.811,203.186,116.333,11.169
-0.797,0.096,0.844,216.614,113.770,14.893
-0.763,0.106,0.845,228.333,108.398,17.517
-0.717,0.150,0.816,231.262,102.295,16.907
-0.658,0.203,0.757,220.703,97.717,13.611
-0.596,0.251,0.665,196.289,97.717,6.104
-0.542,0.294,0.616,160.950,105.530,-4.700
-0.526,0.342,0.652,121.582,116.150,-17.456
-0.546,0.335,0.728,84.778,126.587,-28.198
-0.572,0.291,0.814,55.420,131.042,-34.912
-0.606,0.256,0.904,39.307,125.793,-39.795
-0.624,0.209,0.958,38.513,112.305,-41.138
-0.625,0.169,0.968,48.950,95.520,-40.344
-0.613,0.143,0.950,63.293,78.857,-40.222
-0.587,0.127,0.915,76.965,66.956,-41.687
-0.564,0.152,0.889,85.205,62.500,-45.715
-0.556,0.184,0.884,84.595,64.514,-50.659
-0.547,0.204,0.897,72.571,68.604,-53.894
-0.579,0.220,0.907,52.734,71.167,-55.420
-0.600,0.185,0.946,31.860,73.059,-56.396
-0.617,0.140,1.001,12.390,71.350,-58.960
-0.635,0.103,1.063,-0.244,64.026,-63.721
-0.648,0.071,1.103,-0.854,52.612,-68.665
-0.654,0.072,1.106,13.306,40.222,-71.838
-0.640,0.080,1.078,37.048,28.625,-72.449
-0.607,0.084,1.025,59.082,20.142,-73.303
-0.578,0.102,0.959,69.641,18.066,-77.515
-0.564,0.147,0.951,65.125,23.315,-85.632
-0.561,0.181,0.976,47.913,30.762,-93.994
-0.583,0.214,1.034,23.743,34.790,-99.060
-0.606,0.202,1.093,2.808,33.691,-99.365
-0.631,0.173,1.138,-8.057,26.306,-94.849
-0.642,0.113,1.142,-6.653,14.526,-87.280

-2.912,1.089,-0.625,-474.915,78.979,-194.214
-3.909,1.547,-0.917,-553.528,42.664,-208.740
-4.000,2.146,-1.711,-544.617,-5.127,-179.993
-4.000,3.035,-2.769,-426.453,-29.480,-102.417
-4.000,3.999,-3.539,-297.974,-0.549,1.709
-4.000,4.000,-3.341,-280.579,71.106,105.896
-4.000,4.000,-2.354,-375.671,153.015,203.003
-3.711,4.000,-1.042,-502.563,218.567,290.588
-3.035,4.000,-0.281,-608.337,249.512,352.478
-2.111,4.000,-0.539,-635.925,268.311,394.226
-1.074,4.000,-1.434,-526.733,297.363,455.811
-0.066,4.000,-1.878,-299.805,365.234,545.105
0.680,4.000,-1.429,-104.431,437.195,613.281
1.111,4.000,-0.483,-29.175,469.421,649.536
1.101,3.773,0.794,-51.331,456.421,664.917
0.827,2.540,1.898,-93.811,399.780,644.836
0.619,2.304,2.010,-118.103,268.494,565.002
1.294,3.144,0.763,-137.329,83.557,462.402
2.576,3.808,-0.837,-170.288,-69.031,399.109
3.484,3.495,-1.908,-213.867,-109.680,370.728
3.773,2.818,-2.438,-233.398,-79.529,354.004
3.952,2.238,-2.669,-205.444,-39.368,329.407
3.971,1.655,-2.284,-154.358,4.639,297.791
3.562,1.018,-1.470,-112.854,50.598,261.963
3.177,0.402,-0.599,-98.083,72.266,212.891
2.784,-0.168,0.178,-119.690,60.852,151.062
2.348,-0.606,0.726,-139.954,29.602,94.849
1.872,-0.927,0.818,-128.357,10.254,60.242
1.380,-0.853,0.614,-86.853,28.259,26.550
0.643,-0.525,0.709,-38.818,48.462,-13.672
-0.038,-0.166,0.831,-12.268,48.828,-46.997
-0.583,0.249,0.772,-3.418,33.020,-69.824
-0.978,0.675,0.631,3.601,13.733,-78.247
-1.201,0.833,0.516,6.287,-1.404,-72.815
-1.405,0.847,0.544,-2.502,-12.817,-69.763
-1.554,0.822,0.564,-13.306,-25.452,-69.397
-1.586,0.785,0.385,-14.465,-44.128,-65.491
-1.538,0.786,-0.009,-4.578,-62.622,-59.143
-1.512,0.788,-0.512,10.254,-70.984,-49.622
-1.480,0.830,-0.904,21.240,-63.232,-39.124
-1.426,0.872,-1.036,27.344,-43.823,-25.940
-1.435,0.747,-0.923,24.536,-19.958,-8.728
-1.354,0.553,-0.754,11.108,-4.089,2.380
-1.190,0.331,-0.617,-2.869,3.967,5.859
-1.075,0.099,-0.450,-8.118,13.062,6.897
-1.021,-0.064,-0.315,-1.099,20.081,6.042
-1.016,-0.067,-0.253,12.512,22.278,1.709
-1.041,-0.002,-0.262,28.015,19.287,-1.892
-1.036,0.109,-0.325,41.443,14.709,-2.075
-0.991,0.217,-0.380,46.936,10.742,-0.916
-0.938,0.331,-0.384,41.870,8.606,-0.610
-0.857,0.371,-0.358,34.851,7.935,0.977
-0.793,0.341,-0.326,28.687,9.521,1.892
-0.766,0.286,-0.283,23.621,13.489,-0.183
-0.765,0.235,-0.246,22.888,18.250,-4.028
-0.791,0.170,-0.222,28.259,22.888,-7.629
-0.831,0.110,-0.190,36.987,25.757,-10.193
-0.857,0.073,-0.153,47.119,26.489,-13.306
-0.863,0.122,-0.110,57.861,26.184,-17.273
-0.866,0.246,-0.075,64.819,25.146,-19.775
-0.886,0.323,-0.061,62.073,22.461,-19.287
-0.900,0.347,-0.062,51.575,18.738,-19.653
-0.896,0.362,-0.084,40.283,15.198,-22.583
-0.868,0.384,-0.151,32.715,12.756,-26.123
-0.843,0.388,-0.234,30.151,14.893,-29.785
-0.816,0.393,-0.299,31.250,22.156,-35.400
-0.783,0.398,-0.326,37.415,30.151,-42.053
-0.770,0.369,-0.307,51.514,37.109,-46.692
-0.800,0.333,-0.235,76.294,40.283,-48.157
-0.772,0.280,-0.176,111.755,39.063,-46.936
-0.713,0.297,-0.123,145.020,36.499,-47.363
-0.656,0.365,-0.063,160.767,33.264,-50.903
-0.631,0.436,-0.009,157.227,29.907,-55.481
-0.627,0.477,0.012,142.151,25.940,-60.120
-0.603,0.485,-0.013,122.620,21.545,-65.735
-0.587,0.469,-0.062,103.882,19.104,-73.364
-0.578,0.435,-0.113,90.393,18.921,-82.275
-0.571,0.376,-0.158,84.595,19.592,-91.187
-0.557,0.306,-0.184,88.928,20.874,-100.525
-0.581,0.295,-0.146,109.680,24.292,-109.802
-0.572,0.329,-0.072,151.550,28.564,-116.760
-0.557,0.400,0.030,207.458,33.325,-118.225
-0.526,0.480,0.144,260.986,39.612,-115.173
-0.584,0.525,0.276,300.964,45.288,-110.718
-0.589,0.562,0.372,317.322,47.852,-104.126
-0.619,0.595,0.431,308.655,45.898,-104.431
-0.646,0.627,0.451,280.640,41.199,-111.511
-0.641,0.658,0.446,241.272,31.860,-122.559
-0.630,0.677,0.435,200.134,20.447,-133.606
-0.622,0.684,0.431,167.603,10.010,-141.541
-0.623,0.659,0.432,152.649,3.845,-141.968
-0.599,0.631,0.424,158.386,1.953,-134.399
-0.580,0.610,0.422,180.420,5.554,-122.986
-0.571,0.598,0.420,205.078,14.587,-111.206
-0.585,0.604,0.434,219.238,24.414,-103.027
-0.607,0.628,0.471,219.788,32.410,-100.098
-0.631,0.676,0.532,206.787,35.461,-100.403
-0.649,0.690,0.567,184.692,32.837,-99.609
-0.641,0.649,0.590,162.476,28.931,-97.961
-0.629,0.589,0.619,148.560,26.672,-98.267
-0.625,0.540,0.641,148.987,26.001,-99.854
-0.632,0.514,0.644,163.269,28.076,-99.487
-0.623,0.501,0.655,184.082,33.142,-95.642
-0.604,0.517,0.666,202.026,37.720,-91.187
-0.590,0.556,0.680,210.510,42.053,-89.233
-0.579,0.596,0.677,204.041,46.875,-89.478
-0.579,0.640,0.671,180.847,50.476,-90.881
-0.581,0.668,0.665,146.179,51.819,-94.177
-0.575,0.672,0.667,106.812,50.415,-98.755
-0.564,0.638,0.656,73.181,46.814,-102.051
-0.562,0.565,0.635,56.213,43.823,-100.464
-0.572,0.486,0.635,61.951,42.786,-93.384
-0.566,0.405,0.641,87.219,42.725,-82.153
-0.544,0.353,0.651,118.591,43.335,-71.289
-0.518,0.328,0.675,143.799,44.434,-64.819
-0.484,0.316,0.683,155.090,46.387,-63.843
-0.476,0.342,0.676,149.780,48.218,-66.467
-0.472,0.373,0.682,131.104,49.377,-70.313
-0.456,0.374,0.687,105.713,47.424,-73.242

-1.155,0.768,-1.073,-401.794,-37.048,-62.805
-1.219,0.788,-1.413,-357.483,-34.302,-53.772
-1.314,0.903,-1.736,-294.067,-13.916,-42.847
-1.495,1.171,-1.952,-240.112,19.409,-34.973
-1.739,1.556,-1.984,-210.205,60.608,-27.161
-2.002,1.946,-1.909,-202.148,99.731,-11.658
-2.325,2.225,-1.897,-209.656,126.404,8.606
-2.512,2.479,-2.063,-219.116,138.977,29.297
-2.392,2.706,-2.392,-219.299,146.790,52.368
-2.534,2.973,-2.886,-202.271,161.194,92.468
-2.261,3.422,-3.271,-171.265,194.092,128.906
-1.896,3.776,-3.493,-135.498,232.178,146.484
-1.512,4.000,-3.689,-118.408,275.330,181.885
-1.061,4.000,-3.718,-117.188,319.519,217.468
-0.612,4.000,-3.661,-131.348,355.896,254.944
-0.099,4.000,-3.619,-144.592,378.235,285.706
0.469,3.987,-3.550,-147.095,393.066,311.157
0.922,3.630,-3.448,-140.991,404.602,330.139
1.347,3.281,-3.223,-134.155,409.546,336.670
1.796,3.060,-2.959,-123.169,405.884,330.383
2.180,2.798,-2.655,-103.821,404.968,324.707
2.417,2.514,-2.291,-75.012,405.945,322.021
2.548,2.292,-1.844,-38.086,401.428,316.284
2.586,2.111,-1.339,2.686,389.099,307.434
2.646,1.914,-0.882,32.104,364.380,302.124
2.787,1.548,-0.501,25.879,320.129,299.133
2.929,1.084,-0.195,-21.362,261.597,286.072
2.951,0.667,-0.038,-86.060,205.750,259.338
2.933,0.225,-0.022,-130.310,160.583,228.638
2.827,-0.140,-0.043,-136.475,129.395,193.970
2.606,-0.315,-0.007,-109.375,114.624,154.297
2.270,-0.385,0.157,-67.383,109.680,115.417
1.894,-0.380,0.410,-35.034,92.346,77.820
1.394,-0.208,0.548,-17.151,54.260,44.739
0.985,-0.033,0.455,-9.399,34.180,33.752
0.792,0.079,0.156,-2.502,68.115,29.358
0.287,0.131,0.147,4.211,79.956,17.761
-0.090,0.191,0.211,5.432,56.030,5.310
-0.338,0.187,0.151,-1.709,36.743,-9.033
-0.504,0.226,0.042,-13.306,20.752,-17.639
-0.631,0.259,-0.018,-19.348,9.033,-20.020
-0.767,0.264,-0.041,-16.174,3.479,-20.935
-0.857,0.325,-0.060,-9.338,2.319,-21.729
-0.935,0.403,-0.102,-3.723,1.465,-22.095
-1.009,0.419,-0.136,-0.671,3.357,-21.362
-1.069,0.404,-0.165,-0.061,8.667,-21.301
-1.119,0.370,-0.201,-0.977,13.977,-22.888
-1.150,0.358,-0.198,-2.808,15.320,-24.292
-1.150,0.376,-0.174,-2.808,12.512,-23.437
-1.101,0.403,-0.162,-1.831,8.057,-19.592
-1.051,0.414,-0.194,-2.808,6.042,-15.137
-1.047,0.416,-0.209,-7.996,5.005,-11.597
-1.047,0.374,-0.204,-13.672,3.662,-8.728
-1.051,0.304,-0.175,-16.846,2.808,-7.751
-1.059,0.250,-0.149,-15.625,3.662,-8.423
-1.064,0.204,-0.127,-10.559,5.249,-10.925
-1.070,0.189,-0.095,-2.625,6.470,-13.794
-1.100,0.209,-0.065,6.653,6.592,-14.587
-1.119,0.253,-0.077,16.052,5.188,-13.977
-1.087,0.309,-0.116,24.109,2.625,-12.451
-1.049,0.367,-0.140,28.259,0.916,-9.338
-1.024,0.381,-0.155,27.222,1.526,-5.432
-1.013,0.359,-0.153,20.752,1.831,-2.136
-1.002,0.314,-0.146,12.207,0.305,-1.099
-0.989,0.271,-0.131,8.301,-0.427,-1.465
-1.009,0.254,-0.120,10.254,0.366,-1.221
-1.022,0.244,-0.111,16.968,1.221,-0.549
-1.025,0.246,-0.108,24.048,1.404,0.122
-1.006,0.244,-0.109,29.541,0.732,-0.366
-0.985,0.262,-0.113,32.288,1.099,-1.099
-0.962,0.280,-0.105,31.677,0.366,-1.343
-0.935,0.289,-0.105,26.550,-0.977,-0.916
-0.920,0.289,-0.114,17.395,-2.380,-0.854
-0.901,0.266,-0.128,7.812,-3.418,-1.282
-0.875,0.230,-0.146,1.404,-2.747,-1.709
-0.862,0.199,-0.148,-1.953,-1.343,-3.052
-0.866,0.180,-0.120,-0.244,-0.366,-4.456
-0.888,0.166,-0.090,7.996,-1.282,-5.127
-0.872,0.161,-0.096,21.301,-4.211,-4.089
-0.834,0.169,-0.134,31.921,-7.202,-3.784
-0.780,0.174,-0.190,35.156,-8.118,-6.531
-0.759,0.182,-0.215,34.729,-5.737,-11.719
-0.758,0.201,-0.211,34.668,-2.441,-16.907
-0.757,0.223,-0.195,36.194,0.305,-20.752
-0.762,0.235,-0.175,36.072,1.465,-23.560
-0.761,0.227,-0.152,33.264,0.916,-27.283
-0.762,0.218,-0.133,30.334,-0.427,-32.104
-0.780,0.209,-0.114,30.090,-2.136,-38.086
-0.799,0.218,-0.087,34.546,-4.822,-43.884
-0.838,0.225,-0.055,43.945,-8.667,-48.340
-0.845,0.255,-0.051,55.359,-12.390,-49.927
-0.838,0.279,-0.065,64.819,-17.395,-50.781
-0.800,0.306,-0.106,72.815,-21.973,-52.490
-0.755,0.322,-0.157,79.285,-23.010,-55.725
-0.750,0.341,-0.192,86.670,-21.179,-59.875
-0.748,0.376,-0.218,97.229,-18.860,-64.392
-0.736,0.402,-0.237,109.924,-16.113,-68.176
-0.719,0.410,-0.244,121.216,-14.343,-71.655
-0.703,0.408,-0.239,131.165,-13.733,-75.623
-0.696,0.391,-0.230,140.320,-13.550,-80.933
-0.678,0.379,-0.204,148.804,-13.733,-87.524
-0.653,0.378,-0.196,157.104,-14.648,-94.971
-0.622,0.385,-0.163,165.710,-15.564,-102.173
-0.620,0.410,-0.125,177.429,-15.869,-108.459
-0.604,0.440,-0.094,193.054,-14.465,-114.929
-0.573,0.488,-0.060,210.632,-12.451,-119.934
-0.551,0.551,-0.011,231.018,-12.207,-122.192
-0.531,0.611,0.032,253.235,-12.695,-120.911
-0.532,0.658,0.091,273.193,-12.573,-116.882
-0.557,0.676,0.117,292.542,-11.108,-109.192
-0.563,0.669,0.144,307.373,-7.568,-101.501
-0.558,0.656,0.176,313.904,-3.601,-95.642
-0.538,0.641,0.204,314.453,-1.282,-91.797
-0.522,0.637,0.222,312.683,0.427,-89.661
-0.499,0.653,0.263,311.279,3.662,-87.891
-0.505,0.680,0.317,310.852,7.385,-85.815
-0.501,0.702,0.368,311.340,10.071,-82.092
-0.491,0.720,0.406,309.204,13.245,-78.613
-0.505,0.719,0.425,302.002,18.188,-74.890

-0.833,1.115,-1.009,-224.976,20.447,-32.471
-0.866,1.241,-0.960,-220.398,39.307,-27.771
-1.008,1.350,-0.867,-213.867,56.030,-20.020
-1.186,1.280,-0.875,-196.716,67.322,-5.127
-1.258,1.361,-0.905,-177.917,70.313,7.507
-1.292,1.472,-0.993,-165.344,70.007,15.015
-1.274,1.621,-1.123,-154.785,73.303,24.414
-1.192,1.853,-1.283,-141.235,80.933,37.537
-1.073,2.075,-1.427,-128.479,94.666,52.307
-1.015,2.228,-1.465,-119.324,114.868,70.068
-0.954,2.392,-1.371,-112.671,137.390,88.013
-0.980,2.558,-1.169,-106.140,155.334,104.980
-1.201,2.510,-0.989,-96.252,160.706,126.892
-0.896,2.819,-0.995,-102.966,147.034,145.020
-0.753,2.748,-1.118,-109.070,138.611,161.255
-0.622,2.709,-1.245,-117.920,144.226,180.664
-0.421,2.740,-1.308,-130.981,150.391,191.589
-0.247,2.699,-1.357,-143.188,162.659,200.500
-0.109,2.583,-1.318,-145.630,179.565,210.815
0.008,2.460,-1.239,-139.771,193.481,221.130
0.108,2.294,-1.154,-133.179,201.843,229.736
0.169,2.139,-1.053,-126.221,205.261,232.605
0.222,1.976,-0.979,-117.126,205.444,233.398
0.294,1.821,-0.950,-107.910,202.087,230.408
0.352,1.802,-0.938,-99.060,197.693,224.121
0.410,1.765,-0.934,-87.891,194.519,221.680
0.453,1.706,-0.920,-77.942,192.932,220.459
0.495,1.653,-0.848,-73.059,189.941,216.980
0.495,1.552,-0.766,-71.289,185.547,210.999
0.467,1.443,-0.702,-70.313,179.016,203.186
0.468,1.376,-0.670,-69.092,167.114,195.923
0.525,1.302,-0.687,-68.665,154.114,188.293
0.566,1.257,-0.676,-68.237,143.982,180.908
0.578,1.159,-0.644,-65.369,139.038,176.208
0.579,1.017,-0.566,-59.448,137.573,171.204
0.568,0.872,-0.429,-49.133,136.169,163.330
0.542,0.774,-0.288,-32.288,133.362,155.396
0.507,0.691,-0.172,-14.099,127.991,149.597
0.493,0.582,-0.080,-5.005,116.333,144.226
0.475,0.452,-0.045,-10.498,99.060,133.911
0.454,0.318,-0.030,-27.100,79.834,118.042
0.433,0.180,-0.022,-43.457,62.134,101.929
0.376,0.046,-0.009,-53.345,48.035,88.074
0.300,-0.050,0.001,-54.382,36.926,73.303
0.239,-0.077,0.004,-44.861,29.907,58.350
0.172,-0.042,0.012,-24.780,31.799,49.561
0.077,0.031,0.001,0.183,44.250,49.316
-0.052,0.067,-0.012,18.311,56.030,51.331
-0.180,0.085,0.018,21.790,54.810,46.570
-0.292,0.109,0.036,10.132,47.241,35.645
-0.402,0.109,0.024,-7.080,38.208,23.926
-0.497,0.088,-0.000,-19.775,27.283,17.395
-0.582,0.064,-0.015,-21.973,17.639,13.245
-0.640,0.039,-0.036,-14.893,10.681,9.460
-0.681,0.043,-0.056,-2.502,6.470,6.531
-0.702,0.082,-0.084,11.047,6.226,4.883
-0.742,0.119,-0.099,21.973,9.399,4.761
-0.792,0.126,-0.107,26.428,12.512,4.822
-0.845,0.145,-0.099,23.865,13.550,1.953
-0.891,0.189,-0.093,15.015,10.315,-4.150
-0.925,0.226,-0.107,3.662,3.296,-9.521
-0.933,0.237,-0.142,-4.578,-3.296,-10.803
-0.944,0.222,-0.193,-10.010,-7.690,-8.728
-0.936,0.191,-0.239,-12.878,-10.010,-7.690
-0.928,0.163,-0.264,-11.780,-8.789,-8.240
-0.926,0.134,-0.274,-7.141,-6.409,-8.972
-0.916,0.116,-0.269,0.000,-4.150,-10.254
-0.913,0.120,-0.240,9.644,-1.587,-11.719
-0.920,0.132,-0.207,18.433,1.404,-12.634
-0.928,0.174,-0.169,23.499,2.808,-14.343
-0.928,0.214,-0.147,23.560,3.174,-16.602
-0.932,0.240,-0.138,19.531,2.869,-17.761
-0.944,0.250,-0.144,13.306,2.319,-18.982
-0.951,0.249,-0.152,7.263,0.488,-19.470
-0.950,0.244,-0.174,4.456,-3.296,-19.653
-0.924,0.271,-0.208,7.385,-6.653,-19.653
-0.896,0.301,-0.234,15.137,-7.141,-19.165
-0.880,0.319,-0.243,25.146,-4.883,-18.127
-0.875,0.349,-0.230,34.973,-1.221,-17.456
-0.880,0.394,-0.208,41.382,1.648,-17.090
-0.881,0.426,-0.193,40.100,1.709,-16.785
-0.876,0.430,-0.199,29.602,-0.916,-17.639
-0.859,0.411,-0.211,14.099,-4.822,-19.348
-0.857,0.372,-0.227,0.183,-9.277,-21.118
-0.848,0.335,-0.249,-5.371,-12.207,-22.339
-0.819,0.316,-0.282,-2.563,-12.390,-22.705
-0.790,0.312,-0.292,5.554,-9.644,-22.156
-0.778,0.301,-0.283,16.907,-4.761,-22.278
-0.781,0.292,-0.259,28.809,1.038,-23.437
-0.792,0.307,-0.244,39.734,7.690,-25.208
-0.822,0.327,-0.229,45.349,12.939,-28.381
-0.866,0.336,-0.208,43.579,14.160,-30.823
-0.903,0.336,-0.201,38.147,10.681,-32.715
-0.907,0.353,-0.193,34.668,5.310,-33.691
-0.902,0.376,-0.200,34.790,2.502,-33.752
-0.898,0.381,-0.211,37.354,3.540,-32.104
-0.876,0.364,-0.223,41.626,5.676,-30.762
-0.851,0.339,-0.232,47.668,8.423,-31.555
-0.824,0.310,-0.237,55.542,12.451,-34.485
-0.804,0.287,-0.244,65.674,15.930,-38.147
-0.790,0.274,-0.246,75.012,18.250,-42.786
-0.786,0.290,-0.237,82.825,18.799,-49.072
-0.776,0.345,-0.216,90.393,18.433,-56.763
-0.763,0.409,-0.203,96.436,17.822,-61.890
-0.749,0.469,-0.189,100.525,16.785,-62.378
-0.738,0.497,-0.180,103.882,16.357,-60.364
-0.713,0.495,-0.176,107.666,17.090,-58.777
-0.681,0.473,-0.168,111.816,18.005,-59.021
-0.686,0.445,-0.165,117.065,18.921,-61.401
-0.698,0.423,-0.155,124.329,19.409,-66.650
-0.701,0.400,-0.148,133.606,17.761,-74.768
-0.694,0.401,-0.131,147.583,15.747,-84.229
-0.673,0.430,-0.088,167.419,16.724,-93.445
-0.657,0.463,-0.022,192.932,19.775,-99.609
-0.639,0.504,0.047,223.816,22.827,-102.051
-0.614,0.549,0.135,259.644,26.855,-101.624
-0.606,0.589,0.240,297.729,30.212,-97.717
-0.600,0.605,0.333,334.412,31.616,-88.562
-0.599,0.606,0.385,364.014,34.790,-76.111

-1.595,1.193,-0.879,-391.357,36.743,-155.090
-2.282,1.332,-1.172,-388.672,46.875,-128.052
-3.023,1.532,-1.317,-387.268,61.462,-93.750
-3.548,1.910,-1.371,-401.306,70.618,-62.378
-3.945,2.334,-1.421,-437.378,77.576,-24.902
-4.000,2.709,-1.455,-487.366,86.548,15.869
-4.000,2.994,-1.683,-523.254,100.403,53.406
-4.000,3.390,-2.064,-521.973,132.568,90.820
-3.857,3.803,-2.396,-466.553,188.171,137.390
-3.447,4.000,-2.411,-368.713,264.771,194.092
-3.018,4.000,-2.191,-283.630,340.942,246.765
-2.487,4.000,-1.930,-248.718,391.235,297.485
-1.811,4.000,-1.895,-260.681,410.095,355.225
-1.177,4.000,-2.030,-303.406,408.569,407.776
-0.536,4.000,-2.374,-344.177,395.630,439.026
0.232,3.375,-2.710,-353.271,382.019,442.749
0.783,2.447,-2.575,-331.665,382.996,424.988
1.019,1.909,-1.840,-265.808,390.076,396.179
1.128,1.771,-1.082,-130.371,363.220,376.770
1.411,2.010,-0.939,10.559,286.682,367.554
1.937,2.629,-1.269,66.284,178.589,349.121
2.802,3.080,-1.992,18.005,70.618,323.547
3.722,2.686,-2.758,-118.530,-6.287,301.392
4.000,1.694,-3.102,-273.743,-20.325,264.282
4.000,0.620,-2.809,-330.078,24.109,219.482
3.740,-0.001,-2.064,-239.746,88.562,183.472
3.241,-0.015,-1.214,-78.979,138.855,148.682
2.856,0.459,-0.387,47.791,154.175,115.540
2.429,0.665,0.251,67.261,134.766,90.210
1.944,0.474,0.761,-9.155,91.370,60.974
1.470,0.250,0.871,-79.834,35.278,30.029
1.150,0.061,0.546,-87.402,10.925,14.709
0.774,0.143,0.180,-43.152,28.320,3.845
0.312,0.289,0.151,1.160,49.927,-9.460
-0.154,0.398,0.228,25.757,61.829,-20.569
-0.541,0.483,0.270,26.733,59.937,-30.945
-0.831,0.481,0.268,15.686,45.837,-35.645
-1.032,0.477,0.225,6.653,26.001,-37.476
-1.120,0.519,0.131,6.653,6.592,-38.940
-1.156,0.584,0.046,13.611,-5.859,-36.377
-1.189,0.617,-0.040,17.578,-10.864,-31.250
-1.210,0.527,-0.134,11.230,-11.658,-27.710
-1.236,0.410,-0.216,-0.427,-10.132,-27.832
-1.264,0.331,-0.285,-5.493,-9.460,-27.283
-1.325,0.291,-0.391,-2.625,-8.484,-24.841
-1.345,0.354,-0.461,7.263,-7.263,-23.071
-1.315,0.455,-0.497,24.292,-3.845,-20.081
-1.255,0.525,-0.487,37.537,2.808,-14.709
-1.183,0.530,-0.422,41.687,10.132,-10.315
-1.127,0.478,-0.328,37.354,15.015,-6.714
-1.090,0.394,-0.223,29.663,15.015,-5.371
-1.062,0.330,-0.171,24.353,10.986,-5.737
-1.043,0.293,-0.170,23.254,4.272,-6.226
-1.046,0.258,-0.208,24.170,-0.488,-6.042
-1.024,0.233,-0.249,25.879,-3.540,-6.042
-0.976,0.242,-0.265,29.724,-5.371,-5.493
-0.952,0.210,-0.287,35.950,-4.028,-3.845
-0.905,0.148,-0.316,42.358,-0.793,-3.540
-0.922,0.154,-0.308,46.082,0.793,-6.348
-0.885,0.168,-0.307,49.622,3.296,-12.085
-0.879,0.218,-0.300,52.673,3.357,-16.602
-0.867,0.269,-0.299,51.453,0.549,-19.653
-0.849,0.343,-0.334,46.204,-2.747,-23.254
-0.817,0.413,-0.394,39.490,-5.432,-24.902
-0.798,0.427,-0.462,31.982,-6.226,-24.475
-0.780,0.418,-0.520,24.414,-4.700,-25.085
-0.761,0.381,-0.550,19.165,-1.770,-27.100
-0.760,0.338,-0.524,17.883,2.319,-28.198
-0.786,0.289,-0.454,24.353,6.409,-28.748
-0.809,0.206,-0.392,42.297,9.277,-29.175
-0.803,0.150,-0.346,71.655,10.132,-32.043
-0.758,0.189,-0.307,99.304,8.911,-37.720
-0.695,0.270,-0.269,119.080,7.080,-41.809
-0.655,0.351,-0.236,126.099,6.287,-42.847
-0.633,0.414,-0.213,123.596,5.493,-45.227
-0.597,0.434,-0.212,113.037,4.700,-49.561
-0.603,0.427,-0.205,97.351,3.174,-55.359
-0.613,0.408,-0.207,83.374,-0.488,-63.843
-0.578,0.381,-0.258,76.294,-5.188,-73.608
-0.536,0.327,-0.298,77.942,-8.423,-81.970
-0.512,0.267,-0.317,89.355,-8.484,-90.027
-0.499,0.249,-0.331,112.549,-6.348,-100.769
-0.460,0.266,-0.321,145.081,-3.967,-113.770
-0.410,0.318,-0.294,181.580,-2.136,-124.268
-0.371,0.436,-0.248,216.064,0.732,-131.836
-0.386,0.570,-0.183,242.859,3.540,-132.080
-0.422,0.650,-0.134,261.414,3.601,-122.070
-0.443,0.687,-0.106,269.470,0.793,-109.985
-0.437,0.686,-0.091,264.404,-3.784,-106.873
-0.424,0.650,-0.076,249.756,-9.827,-112.732
-0.411,0.616,-0.052,235.229,-15.747,-123.352
-0.397,0.606,-0.002,230.530,-19.104,-134.460
-0.404,0.610,0.059,237.610,-17.090,-142.700
-0.418,0.651,0.126,252.075,-11.536,-147.034
-0.439,0.667,0.173,269.836,-4.150,-148.499
-0.432,0.705,0.203,287.720,1.831,-145.264
-0.478,0.731,0.247,303.223,4.028,-138.123
-0.508,0.726,0.267,311.829,3.784,-128.357
-0.498,0.716,0.276,312.317,1.831,-119.934
-0.458,0.719,0.294,306.335,-0.488,-117.310
-0.415,0.712,0.324,297.913,2.075,-118.896
-0.395,0.713,0.388,289.673,13.367,-119.873
-0.437,0.672,0.469,283.203,29.846,-117.188
-0.464,0.604,0.559,278.870,46.997,-112.183
-0.483,0.566,0.663,279.114,59.692,-108.215
-0.512,0.537,0.752,286.011,66.833,-107.239
-0.533,0.496,0.795,295.715,72.205,-104.492
-0.529,0.479,0.820,302.185,74.280,-98.083
-0.525,0.471,0.826,299.622,72.754,-93.323
-0.491,0.494,0.820,282.654,70.618,-93.628
-0.451,0.529,0.804,255.188,68.665,-96.741
-0.421,0.569,0.794,221.863,66.101,-102.112
-0.417,0.579,0.774,187.256,65.063,-108.154
-0.400,0.568,0.747,153.137,65.491,-111.572
-0.388,0.536,0.730,122.375,64.453,-112.732
-0.379,0.473,0.702,96.802,62.500,-111.877
-0.332,0.412,0.717,76.660,60.669,-110.168
-0.299,0.399,0.729,66.528,58.533,-109.619
-0.272,0.387,0.792,70.129,57.800,-107.849

-1.884,1.774,-0.319,-710.815,24.536,-196.045
-2.320,2.452,-0.533,-781.738,27.588,-198.364
-2.943,2.704,-0.897,-768.494,25.879,-139.709
-3.400,2.826,-1.510,-663.086,36.621,-44.739
-3.761,3.317,-2.101,-584.106,63.232,26.123
-4.000,4.000,-2.527,-615.784,82.520,55.237
-3.956,4.000,-3.003,-708.313,98.877,72.144
-3.553,4.000,-3.509,-788.635,124.329,107.300
-2.314,4.000,-4.000,-817.261,169.373,143.127
-1.348,4.000,-4.000,-696.167,269.592,201.599
-0.237,3.778,-4.000,-494.568,397.827,245.300
0.930,3.992,-4.000,-302.307,534.302,260.071
1.823,4.000,-4.000,-159.912,653.259,290.283
2.370,4.000,-3.992,-86.243,728.088,331.970
2.656,4.000,-3.209,-79.163,738.586,360.840
2.610,3.805,-2.520,-107.849,702.026,364.502
2.518,3.006,-1.540,-113.953,662.781,362.671
2.368,2.080,-0.529,-66.895,612.061,378.296
2.314,1.800,-0.130,-16.296,511.536,376.831
2.622,2.016,-0.389,-4.333,370.483,356.384
3.219,2.059,-0.865,-30.090,237.366,343.323
3.604,1.862,-1.353,-93.689,152.771,320.251
3.826,1.381,-1.708,-161.743,111.023,284.302
3.908,0.741,-1.827,-186.646,104.004,247.681
3.645,0.260,-1.683,-157.715,124.084,209.167
3.282,0.025,-1.173,-96.924,146.606,169.678
2.882,-0.175,-0.234,-46.021,152.771,129.211
2.396,-0.162,0.525,-29.114,128.052,89.478
1.779,-0.282,0.893,-16.541,100.891,74.402
1.393,-0.351,0.840,-0.916,93.445,63.171
1.005,-0.224,0.804,7.446,61.646,33.875
0.647,-0.034,0.582,13.245,20.386,4.395
0.310,0.162,0.251,13.000,-5.249,-14.893
-0.086,0.282,0.043,-1.282,-15.747,-26.611
-0.470,0.234,-0.037,-20.020,-21.240,-31.677
-0.792,0.173,-0.027,-24.048,-29.419,-34.790
-0.947,0.117,-0.096,-4.028,-35.706,-39.063
-1.017,0.189,-0.185,24.109,-31.433,-48.096
-1.130,0.421,-0.204,47.974,-23.071,-56.396
-1.244,0.574,-0.255,59.265,-20.508,-53.955
-1.271,0.583,-0.352,46.204,-25.330,-48.096
-1.292,0.532,-0.447,16.113,-31.250,-46.570
-1.246,0.417,-0.557,-7.874,-32.471,-43.762
-1.193,0.321,-0.622,-14.648,-24.902,-38.452
-1.167,0.305,-0.600,-7.019,-11.230,-34.424
-1.194,0.338,-0.495,8.667,1.831,-31.189
-1.224,0.404,-0.381,24.536,7.446,-27.039
-1.231,0.475,-0.348,33.752,4.028,-20.996
-1.198,0.473,-0.382,34.546,-2.441,-13.184
-1.186,0.436,-0.407,26.794,-5.554,-7.324
-1.176,0.373,-0.420,16.785,-5.981,-4.517
-1.128,0.304,-0.421,13.062,-4.761,-2.014
-1.080,0.262,-0.385,17.578,-0.977,1.404
-1.038,0.250,-0.328,27.649,5.188,2.991
-1.006,0.249,-0.268,38.147,11.230,2.930
-1.001,0.252,-0.228,43.274,12.878,2.563
-1.019,0.249,-0.216,41.565,10.254,0.854
-1.013,0.213,-0.242,37.109,5.066,-1.160
-0.995,0.165,-0.285,29.846,-1.526,-3.174
-0.968,0.111,-0.333,21.667,-8.118,-6.104
-0.944,0.112,-0.377,16.785,-13.611,-10.681
-0.907,0.165,-0.435,19.348,-15.442,-14.404
-0.860,0.197,-0.493,26.245,-13.794,-15.320
-0.820,0.214,-0.533,31.799,-8.484,-16.113
-0.788,0.224,-0.552,36.194,-0.610,-19.226
-0.746,0.226,-0.539,41.443,8.545,-24.231
-0.743,0.213,-0.499,46.509,17.273,-29.236
-0.747,0.204,-0.435,52.734,23.315,-33.569
-0.782,0.162,-0.387,63.416,25.513,-37.964
-0.802,0.138,-0.346,75.012,25.696,-43.091
-0.796,0.167,-0.299,84.595,24.414,-50.049
-0.787,0.212,-0.260,92.102,23.499,-57.068
-0.777,0.243,-0.228,97.290,24.475,-62.012
-0.766,0.256,-0.202,100.525,26.611,-65.674
-0.758,0.252,-0.175,102.783,28.320,-70.129
-0.748,0.238,-0.159,104.980,29.175,-76.294
-0.729,0.233,-0.151,107.056,28.870,-85.266
-0.708,0.246,-0.149,109.009,27.649,-96.008
-0.693,0.263,-0.145,112.061,25.757,-107.300
-0.668,0.288,-0.132,119.446,23.560,-119.019
-0.650,0.352,-0.106,132.690,23.254,-128.235
-0.668,0.408,-0.063,154.175,24.902,-132.935
-0.704,0.463,-0.006,181.091,27.161,-132.935
-0.734,0.542,0.040,207.825,27.100,-129.333
-0.771,0.595,0.071,229.492,21.240,-123.047
-0.744,0.620,0.083,244.141,10.803,-116.577
-0.691,0.637,0.079,248.840,0.854,-114.746
-0.645,0.656,0.078,247.925,-6.409,-118.835
-0.598,0.670,0.077,246.887,-11.047,-124.878
-0.578,0.708,0.097,250.916,-12.817,-127.930
-0.564,0.751,0.133,263.428,-9.949,-126.221
-0.554,0.784,0.184,279.541,-3.357,-119.385
-0.573,0.815,0.259,294.067,2.930,-108.948
-0.589,0.811,0.318,303.772,7.385,-95.032
-0.594,0.798,0.352,305.115,8.606,-81.055
-0.570,0.780,0.361,296.631,7.996,-72.021
-0.548,0.748,0.352,281.433,8.606,-67.200
-0.522,0.714,0.356,264.282,11.536,-65.735
-0.509,0.678,0.362,252.808,17.273,-63.843
-0.502,0.643,0.397,251.953,27.222,-58.105
-0.506,0.604,0.451,259.094,40.588,-51.453
-0.534,0.580,0.519,264.587,53.284,-45.532
-0.592,0.553,0.588,262.451,59.509,-40.894
-0.613,0.503,0.649,251.526,58.655,-38.391
-0.615,0.456,0.679,232.117,52.734,-39.795
-0.605,0.420,0.677,203.125,43.945,-46.326
-0.563,0.394,0.652,169.800,34.241,-56.519
-0.519,0.402,0.598,138.611,25.940,-67.993
-0.473,0.407,0.547,117.676,23.743,-78.308
-0.461,0.426,0.494,108.765,29.724,-85.022
-0.451,0.435,0.481,109.619,40.222,-85.693
-0.452,0.430,0.496,115.906,50.476,-80.933
-0.471,0.404,0.535,122.559,59.448,-73.059
-0.488,0.374,0.586,125.549,64.270,-66.040
-0.502,0.373,0.645,125.427,62.744,-63.660
-0.508,0.364,0.686,123.901,56.519,-64.270
-0.490,0.328,0.697,121.582,46.814,-64.392
-0.476,0.297,0.689,123.962,37.170,-62.988
-0.433,0.266,0.675,133.667,33.447,-59.753

-0.706,1.416,-0.701,-250.671,-2.319,-37.659
-0.745,1.472,-0.768,-233.948,12.207,-16.296
-0.863,1.522,-0.785,-208.679,29.663,7.080
-0.970,1.588,-0.769,-182.068,45.044,29.358
-1.083,1.719,-0.758,-163.757,53.711,46.753
-1.198,1.837,-0.829,-162.170,59.326,60.852
-1.287,2.035,-0.952,-172.729,65.796,70.496
-1.387,2.233,-1.110,-185.791,75.562,78.491
-1.461,2.435,-1.283,-192.322,90.820,90.332
-1.454,2.726,-1.460,-193.054,107.727,107.727
-1.402,3.049,-1.594,-183.960,126.709,131.653
-1.360,3.311,-1.649,-172.729,151.062,164.124
-1.340,3.559,-1.659,-168.152,170.227,198.914
-1.190,3.633,-1.711,-166.809,179.871,231.812
-0.968,3.613,-1.774,-170.105,185.181,260.498
-0.600,3.722,-1.901,-186.279,188.904,283.325
-0.050,3.646,-2.103,-220.154,193.481,302.612
0.539,3.359,-2.217,-250.122,204.773,315.552
1.077,3.027,-2.086,-244.202,235.352,323.914
1.430,2.704,-1.705,-198.181,274.719,336.487
1.601,2.398,-1.182,-136.230,307.983,352.905
1.615,2.273,-0.555,-83.252,325.745,367.126
1.540,2.078,0.112,-61.584,324.707,375.732
1.465,1.728,0.654,-71.533,295.105,371.094
1.456,1.271,0.832,-96.191,236.572,351.501
1.533,0.847,0.753,-126.099,166.870,318.237
1.673,0.511,0.589,-147.644,103.821,279.236
1.800,0.269,0.366,-152.283,57.495,243.164
1.899,0.116,0.114,-137.146,33.325,210.388
1.893,0.036,-0.097,-111.755,30.701,181.091
1.740,0.081,-0.197,-81.787,40.771,152.344
1.500,0.153,-0.247,-54.016,52.124,126.892
1.251,0.150,-0.246,-34.790,56.335,106.995
0.973,0.117,-0.145,-26.733,52.124,82.581
0.702,0.076,0.036,-26.733,36.804,50.354
0.411,0.070,0.231,-28.442,7.996,20.447
0.201,0.149,0.252,-23.682,-12.756,4.089
0.167,0.231,0.126,-10.803,2.625,4.761
0.024,0.329,-0.083,-0.366,37.720,16.602
-0.184,0.303,-0.156,-1.343,51.208,13.489
-0.382,0.313,-0.125,-9.583,46.875,-1.526
-0.533,0.352,-0.110,-20.569,38.696,-14.038
-0.650,0.339,-0.130,-24.475,29.602,-20.874
-0.742,0.302,-0.141,-21.179,20.935,-22.888
-0.824,0.336,-0.124,-13.367,12.573,-24.292
-0.872,0.440,-0.122,-6.165,4.883,-23.254
-0.921,0.491,-0.159,-6.348,-0.610,-19.897
-0.994,0.500,-0.190,-12.878,-6.409,-18.127
-1.033,0.496,-0.226,-21.240,-13.184,-18.616
-1.029,0.465,-0.297,-27.710,-18.921,-19.226
-0.989,0.422,-0.381,-30.945,-20.203,-17.700
-0.955,0.380,-0.442,-29.724,-17.151,-14.832
-0.923,0.354,-0.477,-22.583,-12.085,-13.062
-0.886,0.366,-0.491,-10.864,-7.080,-11.963
-0.844,0.405,-0.484,-2.075,-3.479,-10.193
-0.841,0.433,-0.465,-1.343,-0.305,-8.362
-0.850,0.421,-0.450,-7.935,2.075,-7.996
-0.865,0.393,-0.407,-17.822,2.625,-10.315
-1.013,0.258,-0.380,-31.799,-3.113,-14.587
-0.852,0.376,-0.319,-57.739,-19.104,-26.794
-0.884,0.312,-0.351,-60.242,-26.062,-34.851
-0.847,0.282,-0.377,-46.570,-22.278,-26.978
-0.854,0.279,-0.370,-21.179,-19.104,-17.883
-0.826,0.270,-0.359,0.244,-15.076,-11.536
-0.815,0.280,-0.354,14.343,-11.536,-9.888
-0.799,0.315,-0.344,20.813,-9.521,-12.207
-0.779,0.340,-0.328,20.874,-7.996,-14.832
-0.766,0.332,-0.316,18.005,-6.653,-17.029
-0.778,0.302,-0.294,16.052,-4.944,-19.104
-0.802,0.287,-0.280,14.343,-4.456,-21.545
-0.819,0.267,-0.287,12.695,-7.690,-23.132
-0.815,0.232,-0.301,11.658,-14.160,-24.353
-0.820,0.208,-0.307,13.855,-19.653,-26.062
-0.822,0.220,-0.314,21.362,-21.423,-29.114
-0.793,0.285,-0.342,32.227,-20.569,-31.372
-0.751,0.384,-0.376,41.687,-17.578,-29.724
-0.729,0.455,-0.390,45.044,-11.414,-25.696
-0.721,0.494,-0.384,41.748,-2.625,-22.400
-0.742,0.492,-0.368,33.142,5.676,-20.691
-0.763,0.441,-0.347,21.423,9.949,-22.339
-0.791,0.384,-0.333,10.376,10.254,-25.757
-0.805,0.316,-0.325,4.333,7.202,-29.053
-0.797,0.250,-0.327,3.418,2.319,-32.043
-0.787,0.187,-0.320,8.118,-2.686,-35.034
-0.771,0.164,-0.319,19.104,-7.385,-38.208
-0.743,0.178,-0.317,34.912,-10.559,-41.321
-0.720,0.237,-0.336,53.162,-10.864,-43.762
-0.662,0.330,-0.374,67.627,-7.629,-44.250
-0.617,0.412,-0.392,74.524,-1.587,-42.480
-0.616,0.431,-0.377,75.989,7.019,-39.490
-0.628,0.417,-0.344,75.745,16.418,-38.330
-0.648,0.385,-0.311,75.134,23.315,-40.344
-0.661,0.358,-0.279,74.951,25.085,-44.128
-0.680,0.347,-0.252,76.477,21.240,-48.889
-0.702,0.334,-0.238,80.566,14.343,-54.260
-0.721,0.369,-0.234,89.722,6.287,-60.547
-0.709,0.430,-0.244,103.149,0.061,-65.430
-0.698,0.488,-0.249,115.540,-1.587,-64.880
-0.686,0.510,-0.257,125.854,-0.244,-60.608
-0.665,0.519,-0.258,135.315,3.540,-56.458
-0.648,0.527,-0.247,143.127,8.057,-54.932
-0.626,0.537,-0.224,148.193,11.597,-56.946
-0.602,0.543,-0.203,148.926,14.343,-60.608
-0.604,0.545,-0.186,146.362,15.137,-65.063
-0.630,0.547,-0.170,142.151,13.794,-71.899
-0.637,0.548,-0.154,138.977,11.292,-81.116
-0.626,0.557,-0.132,140.259,8.606,-89.966
-0.623,0.581,-0.098,149.536,7.080,-94.910
-0.617,0.631,-0.052,164.490,7.935,-94.360
-0.612,0.674,-0.016,182.251,11.047,-88.562
-0.599,0.719,0.012,200.256,14.038,-80.017
-0.580,0.744,0.037,215.698,15.930,-71.045
-0.574,0.760,0.047,226.868,18.127,-63.782
-0.557,0.748,0.064,232.422,19.531,-61.401
-0.555,0.718,0.072,233.032,20.569,-63.782
-0.553,0.697,0.093,228.516,19.287,-67.871
-0.534,0.686,0.113,220.581,15.930,-75.806
-0.511,0.680,0.120,213.379,12.573,-86.304
-0.480,0.695,0.136,209.412,10.864,-94.910

-1.251,1.422,-0.292,-480.896,-7.324,-37.415
-1.345,1.340,-0.496,-480.591,-14.099,-19.348
-1.467,1.307,-0.679,-481.079,-14.343,-8.301
-1.550,1.344,-0.857,-482.971,-8.179,-3.174
-1.632,1.512,-0.950,-489.868,-4.517,2.625
-1.652,1.605,-1.110,-501.587,-8.606,16.846
-1.645,1.605,-1.317,-506.226,-7.507,35.156
-1.778,1.542,-1.512,-504.517,-0.732,50.171
-1.410,1.838,-1.761,-512.024,0.793,52.551
-1.217,1.743,-2.215,-479.126,32.532,65.796
-1.014,1.728,-2.493,-416.748,79.895,92.773
-0.754,1.761,-2.677,-343.506,137.024,108.154
-0.509,1.866,-2.747,-278.137,196.960,120.483
-0.249,1.989,-2.710,-228.943,251.099,132.629
-0.034,2.069,-2.604,-204.895,296.326,141.968
0.151,2.104,-2.471,-203.430,326.477,144.775
0.314,2.042,-2.385,-204.163,343.628,148.071
0.465,1.882,-2.314,-193.604,354.797,155.212
0.587,1.756,-2.224,-170.044,361.877,158.997
0.728,1.725,-2.122,-138.550,367.859,160.767
0.860,1.657,-1.978,-110.474,372.009,168.213
0.980,1.492,-1.726,-91.675,374.878,175.171
0.998,1.339,-1.420,-76.599,376.404,175.659
0.946,1.274,-1.183,-55.420,367.737,169.800
0.908,1.318,-1.026,-34.119,341.064,162.292
0.913,1.384,-0.906,-22.949,303.589,157.532
0.942,1.356,-0.785,-19.714,268.066,156.677
0.943,1.266,-0.648,-22.217,239.197,157.776
0.924,1.140,-0.521,-28.992,215.027,157.410
0.897,0.971,-0.477,-37.537,191.345,153.381
0.907,0.787,-0.524,-46.326,166.992,145.386
0.918,0.656,-0.606,-53.894,144.653,133.118
0.932,0.566,-0.669,-55.115,128.235,118.042
0.895,0.512,-0.686,-48.767,119.141,103.699
0.840,0.498,-0.651,-36.011,117.249,91.675
0.713,0.455,-0.573,-23.071,119.019,82.703
0.537,0.395,-0.448,-14.709,114.746,72.571
0.395,0.348,-0.293,-7.629,103.516,59.448
0.258,0.309,-0.148,-3.845,86.731,47.241
0.138,0.282,-0.053,-2.563,66.223,36.743
0.016,0.250,-0.042,-0.122,51.270,28.259
-0.027,0.246,-0.109,8.667,54.260,23.926
-0.126,0.255,-0.174,20.081,64.392,24.963
-0.249,0.253,-0.169,28.137,64.087,26.978
-0.344,0.203,-0.147,29.724,60.730,27.527
-0.457,0.147,-0.117,24.170,56.702,24.719
-0.553,0.115,-0.090,18.311,48.889,18.372
-0.628,0.101,-0.062,17.212,38.818,13.184
-0.675,0.096,-0.072,18.005,27.466,9.827
-0.724,0.066,-0.102,19.043,14.404,7.568
-0.749,0.036,-0.133,21.057,4.028,4.333
-0.761,0.035,-0.194,24.780,-0.244,-0.671
-0.773,0.048,-0.260,27.588,1.526,-3.967
-0.780,0.113,-0.295,30.762,9.521,-5.798
-0.810,0.175,-0.318,30.396,21.118,-5.432
-0.846,0.209,-0.310,23.254,28.137,-5.737
-0.889,0.237,-0.266,14.038,26.489,-8.545
-0.932,0.241,-0.230,9.644,20.691,-9.705
-0.956,0.235,-0.225,12.024,13.306,-6.714
-0.983,0.211,-0.232,17.334,5.493,-3.845
-0.993,0.202,-0.237,22.278,-1.404,-1.465
-1.000,0.176,-0.247,24.658,-7.690,0.488
-0.996,0.145,-0.283,24.048,-14.099,0.732
-0.953,0.140,-0.329,21.851,-19.531,0.000
-0.920,0.145,-0.372,19.104,-20.874,-0.671
-0.888,0.142,-0.403,14.709,-16.846,-0.977
-0.870,0.139,-0.407,8.423,-10.986,-2.075
-0.889,0.135,-0.387,3.113,-4.944,-3.540
-0.910,0.141,-0.348,3.052,-0.671,-4.333
-0.940,0.122,-0.316,8.362,0.488,-3.235
-0.959,0.090,-0.297,17.822,0.061,0.793
-0.972,0.073,-0.288,27.710,-1.526,4.211
-0.962,0.093,-0.295,35.278,-3.601,4.211
-0.950,0.134,-0.306,38.452,-5.249,3.296
-0.933,0.181,-0.310,35.339,-6.470,2.625
-0.915,0.208,-0.322,26.428,-5.981,1.892
-0.908,0.193,-0.331,13.550,-4.883,1.587
-0.914,0.148,-0.330,0.854,-3.662,0.610
-0.928,0.095,-0.320,-7.080,-2.991,-0.549
-0.950,0.053,-0.310,-8.850,-3.418,-1.770
-0.961,0.040,-0.307,-3.784,-5.127,-2.991
-0.960,0.050,-0.311,6.714,-6.714,-3.357
-0.950,0.072,-0.313,18.860,-7.141,-2.869
-0.938,0.101,-0.313,27.161,-6.165,-1.953
-0.933,0.121,-0.307,30.396,-5.249,-1.282
-0.933,0.130,-0.294,27.710,-4.822,-1.587
-0.934,0.134,-0.286,20.386,-5.432,-2.869
-0.938,0.121,-0.285,11.536,-6.287,-4.822
-0.936,0.114,-0.299,4.211,-8.179,-7.874
-0.925,0.107,-0.308,1.099,-9.766,-10.437
-0.917,0.093,-0.319,2.441,-10.742,-12.146
-0.905,0.101,-0.328,6.470,-10.803,-13.611
-0.890,0.115,-0.337,11.414,-10.315,-14.465
-0.879,0.116,-0.351,13.977,-9.827,-14.832
-0.874,0.120,-0.358,13.123,-9.399,-16.724
-0.878,0.123,-0.365,9.949,-9.338,-19.897
-0.872,0.134,-0.380,6.042,-9.277,-23.132
-0.866,0.140,-0.392,1.709,-9.094,-26.367
-0.873,0.142,-0.395,-1.709,-8.362,-29.968
-0.867,0.137,-0.381,-2.441,-5.981,-33.081
-0.873,0.145,-0.357,-0.244,-4.333,-35.583
-0.882,0.143,-0.330,6.409,-4.700,-36.133
-0.877,0.123,-0.292,17.639,-6.653,-34.851
-0.875,0.114,-0.273,31.494,-7.874,-34.180
-0.881,0.103,-0.267,46.082,-10.132,-35.339
-0.876,0.099,-0.267,60.242,-14.160,-37.903
-0.848,0.142,-0.286,71.594,-18.799,-42.725
-0.798,0.215,-0.321,78.186,-22.522,-46.814
-0.759,0.271,-0.359,78.491,-24.109,-48.889
-0.728,0.308,-0.392,75.073,-23.315,-49.988
-0.695,0.323,-0.412,71.899,-19.775,-50.842
-0.672,0.318,-0.417,70.679,-15.076,-51.880
-0.665,0.298,-0.411,72.754,-10.132,-54.260
-0.657,0.267,-0.398,78.247,-5.554,-57.861
-0.648,0.237,-0.386,86.609,-1.770,-63.354
-0.630,0.210,-0.380,96.680,1.404,-71.228
-0.595,0.193,-0.374,107.056,2.930,-80.505
-0.559,0.189,-0.371,117.554,2.747,-89.905
-0.505,0.214,-0.373,126.709,3.723,-98.328

-0.824,1.150,-0.713,-372.803,-7.385,0.977
-0.920,1.193,-0.748,-370.361,15.442,9.338
-1.115,1.207,-0.736,-358.521,34.180,20.996
-1.315,1.137,-0.724,-335.205,46.753,40.283
-1.467,1.034,-0.845,-315.552,50.232,58.838
-1.524,1.132,-1.033,-308.899,43.030,66.467
-1.442,1.156,-1.323,-294.800,43.884,75.195
-1.375,1.319,-1.623,-274.414,56.458,85.205
-1.232,1.577,-1.904,-253.357,79.468,97.046
-1.033,1.836,-2.161,-241.150,110.596,112.793
-0.835,1.951,-2.343,-243.225,147.034,127.625
-0.663,1.939,-2.430,-255.127,187.378,136.047
-0.541,1.884,-2.430,-262.329,228.699,136.902
-0.443,1.826,-2.404,-248.535,264.038,136.536
-0.297,1.821,-2.354,-213.257,290.527,143.860
-0.100,1.921,-2.338,-176.819,309.021,153.198
0.121,2.090,-2.299,-155.518,322.266,159.790
0.337,2.221,-2.236,-152.039,333.801,167.603
0.525,2.199,-2.119,-159.973,344.299,172.302
0.669,2.092,-1.953,-164.673,356.201,171.448
0.719,1.982,-1.772,-156.799,368.713,168.396
0.749,1.868,-1.618,-134.644,375.854,166.931
0.768,1.827,-1.436,-101.196,378.601,166.931
0.827,1.905,-1.214,-64.758,373.413,169.495
0.901,1.837,-0.943,-39.795,357.666,178.162
0.919,1.704,-0.699,-35.217,330.444,184.998
0.924,1.603,-0.497,-43.091,295.532,184.570
0.911,1.471,-0.421,-54.871,257.263,179.749
0.925,1.291,-0.400,-65.002,219.604,175.964
0.956,1.091,-0.360,-70.801,185.120,173.035
0.975,0.818,-0.295,-73.425,156.128,168.945
0.944,0.552,-0.215,-73.608,130.493,160.278
0.891,0.348,-0.164,-67.749,106.689,145.691
0.878,0.225,-0.201,-55.054,85.754,130.798
0.881,0.174,-0.263,-38.879,70.374,118.896
0.800,0.130,-0.276,-26.428,62.988,106.750
0.628,0.077,-0.225,-20.569,59.448,91.370
0.445,0.026,-0.129,-20.447,50.659,72.632
0.247,-0.006,-0.023,-22.522,36.133,52.612
0.057,-0.015,0.053,-21.423,19.287,36.804
-0.101,0.042,0.055,-12.634,6.775,28.015
-0.184,0.132,-0.017,1.282,3.113,25.574
-0.227,0.204,-0.134,15.564,4.028,26.123
-0.315,0.270,-0.201,22.827,0.671,24.414
-0.401,0.287,-0.259,20.264,-2.869,18.311
-0.479,0.282,-0.313,9.277,-5.676,11.353
-0.541,0.228,-0.346,-3.845,-7.080,5.615
-0.610,0.173,-0.349,-12.878,-6.714,-0.427
-0.695,0.133,-0.325,-14.038,-6.348,-5.432
-0.778,0.078,-0.305,-5.676,-8.301,-8.240
-0.839,0.061,-0.280,9.216,-12.756,-9.399
-0.851,0.094,-0.277,27.100,-17.273,-12.207
-0.864,0.156,-0.298,40.466,-21.362,-15.625
-0.864,0.242,-0.348,45.959,-23.437,-18.066
-0.848,0.312,-0.418,42.053,-20.569,-19.043
-0.859,0.351,-0.473,29.541,-14.404,-18.982
-0.873,0.344,-0.498,14.526,-7.690,-20.020
-0.907,0.333,-0.491,2.991,-2.441,-22.278
-0.934,0.328,-0.468,-0.610,0.732,-24.231
-0.960,0.318,-0.440,4.944,2.075,-22.827
-0.964,0.305,-0.434,18.250,2.136,-19.043
-0.950,0.297,-0.432,32.898,1.770,-16.602
-0.935,0.294,-0.430,45.044,1.526,-16.235
-0.915,0.336,-0.418,51.880,1.587,-16.785
-0.893,0.374,-0.418,49.683,2.319,-15.564
-0.888,0.368,-0.430,35.767,2.686,-13.672
-0.891,0.341,-0.433,15.869,1.587,-14.404
-0.881,0.293,-0.432,-1.038,0.488,-16.846
-0.883,0.244,-0.413,-9.338,1.831,-19.226
-0.891,0.213,-0.390,-9.094,4.028,-21.179
-0.902,0.185,-0.358,-1.648,5.737,-22.888
-0.911,0.173,-0.329,10.010,7.446,-23.804
-0.912,0.167,-0.309,22.217,8.301,-25.085
-0.905,0.174,-0.292,32.288,7.690,-27.466
-0.896,0.211,-0.285,38.574,6.714,-29.480
-0.875,0.272,-0.292,38.513,5.981,-29.785
-0.859,0.303,-0.303,29.846,4.395,-28.259
-0.849,0.304,-0.315,15.564,2.197,-27.039
-0.846,0.302,-0.308,1.953,0.427,-28.137
-0.862,0.305,-0.287,-5.859,-1.221,-30.212
-0.883,0.287,-0.258,-4.456,-2.747,-29.602
-0.888,0.263,-0.259,5.188,-2.625,-26.123
-0.883,0.241,-0.270,18.494,-2.747,-23.865
-0.881,0.219,-0.281,31.372,-4.578,-25.146
-0.875,0.219,-0.289,43.945,-6.531,-29.236
-0.868,0.239,-0.304,56.580,-7.751,-33.997
-0.851,0.286,-0.321,67.200,-9.277,-38.269
-0.818,0.356,-0.349,74.219,-10.803,-40.894
-0.783,0.408,-0.375,76.477,-10.742,-41.992
-0.761,0.438,-0.394,74.036,-8.301,-42.175
-0.752,0.445,-0.399,69.702,-4.456,-42.542
-0.754,0.433,-0.394,67.139,0.122,-44.128
-0.752,0.409,-0.374,68.359,5.493,-46.570
-0.757,0.385,-0.347,74.341,9.949,-49.805
-0.766,0.366,-0.311,87.036,12.817,-53.772
-0.770,0.346,-0.281,106.750,14.221,-57.678
-0.769,0.336,-0.236,131.165,13.977,-61.035
-0.739,0.388,-0.213,157.349,13.794,-62.195
-0.711,0.438,-0.193,179.932,15.442,-58.350
-0.688,0.493,-0.184,197.388,16.357,-52.185
-0.666,0.541,-0.179,207.520,17.334,-46.936
-0.647,0.569,-0.172,210.266,19.531,-44.250
-0.637,0.587,-0.143,208.496,23.682,-45.288
-0.628,0.584,-0.097,205.383,29.663,-48.828
-0.621,0.571,-0.054,205.078,36.804,-52.979
-0.631,0.545,-0.009,208.618,43.579,-57.434
-0.633,0.518,0.038,217.285,48.035,-61.951
-0.635,0.509,0.099,229.736,49.683,-66.467
-0.635,0.530,0.146,242.004,48.645,-69.580
-0.629,0.562,0.178,250.671,45.166,-69.092
-0.626,0.593,0.207,253.906,38.391,-66.406
-0.620,0.625,0.216,252.991,30.273,-63.110
-0.601,0.655,0.234,250.000,24.963,-59.265
-0.580,0.666,0.251,246.460,23.621,-56.213
-0.561,0.676,0.279,241.760,27.466,-53.711
-0.549,0.675,0.289,235.413,34.302,-51.392
-0.531,0.675,0.318,228.149,43.091,-49.683
-0.530,0.660,0.327,219.849,53.650,-48.584
-0.536,0.635,0.343,208.618,62.866,-48.462

-1.720,1.529,-0.254,-446.960,-23.499,-26.306
-2.083,1.584,-0.416,-445.557,-16.174,-1.770
-2.457,1.764,-0.614,-420.105,-6.470,25.208
-2.708,2.115,-0.851,-397.095,5.920,53.833
-2.867,2.679,-1.054,-405.762,16.418,84.656
-3.079,3.268,-1.200,-453.369,22.034,116.943
-2.823,3.615,-1.521,-514.038,24.048,144.836
-2.419,3.717,-1.962,-550.171,26.001,181.580
-1.665,3.643,-2.563,-538.574,57.678,221.191
-0.847,3.518,-2.932,-485.657,126.953,254.456
-0.123,3.432,-2.920,-409.912,215.637,282.776
0.392,3.363,-2.442,-332.153,309.387,307.617
0.903,3.387,-2.038,-295.532,372.192,325.439
1.222,3.017,-1.668,-278.931,406.738,322.144
1.440,2.617,-1.323,-249.451,432.678,321.350
1.479,2.324,-0.990,-221.619,436.707,304.199
1.357,2.021,-0.733,-189.941,431.702,279.358
1.199,1.741,-0.499,-148.315,424.072,265.259
1.119,1.676,-0.360,-100.342,410.034,253.296
1.116,1.835,-0.312,-53.040,382.446,237.732
1.220,1.996,-0.256,-13.855,345.215,226.440
1.383,1.997,-0.157,4.822,302.612,222.717
1.435,1.901,-0.071,-4.883,256.409,218.079
1.426,1.784,-0.083,-37.842,202.637,204.773
1.460,1.557,-0.140,-74.219,138.489,191.650
1.449,1.320,-0.217,-96.924,75.256,184.387
1.456,1.113,-0.365,-102.722,20.630,177.612
1.533,0.957,-0.626,-101.929,-23.376,168.884
1.610,0.825,-0.849,-103.638,-47.302,155.762
1.566,0.682,-0.902,-109.192,-45.105,138.000
1.312,0.476,-0.779,-113.953,-28.870,119.995
0.965,0.287,-0.519,-108.704,-14.893,103.149
0.638,0.165,-0.267,-89.417,-8.240,88.684
0.311,0.116,-0.072,-61.035,0.549,83.008
0.052,0.057,0.007,-25.940,14.404,86.731
-0.145,0.012,0.005,4.089,22.095,87.646
-0.336,0.045,0.001,15.686,11.963,77.209
-0.437,0.084,-0.070,5.005,-6.531,61.523
-0.522,0.067,-0.170,-17.700,-24.841,47.302
-0.581,0.028,-0.269,-39.734,-38.757,34.607
-0.642,-0.015,-0.367,-51.880,-41.931,23.437
-0.706,-0.043,-0.443,-50.964,-36.011,14.099
-0.782,-0.057,-0.467,-41.138,-27.283,8.362
-0.863,-0.062,-0.448,-25.391,-20.020,4.395
-0.939,-0.066,-0.425,-6.836,-15.564,0.854
-0.975,-0.049,-0.410,9.033,-14.771,-2.197
-0.993,-0.010,-0.396,18.738,-16.113,-4.761
-0.994,0.035,-0.409,23.987,-16.113,-9.338
-0.997,0.087,-0.449,26.184,-14.099,-13.916
-0.995,0.147,-0.472,26.428,-12.268,-17.517
-0.998,0.213,-0.502,24.780,-9.521,-19.897
-0.983,0.258,-0.528,21.118,-6.042,-22.095
-0.969,0.289,-0.535,18.250,-3.723,-24.048
-0.966,0.303,-0.532,18.127,-0.977,-24.658
-0.947,0.304,-0.528,21.606,2.197,-23.621
-0.924,0.311,-0.533,26.855,5.066,-20.752
-0.914,0.317,-0.528,31.433,6.653,-18.127
-0.908,0.340,-0.523,32.898,7.690,-16.479
-0.917,0.353,-0.514,28.320,8.240,-15.381
-0.933,0.357,-0.502,19.592,7.019,-15.991
-0.926,0.341,-0.499,11.597,5.432,-17.456
-0.912,0.312,-0.504,7.690,4.456,-18.005
-0.894,0.285,-0.505,8.606,4.028,-18.066
-0.881,0.266,-0.497,13.000,3.479,-17.517
-0.861,0.266,-0.483,18.311,3.235,-16.663
-0.845,0.288,-0.468,20.935,4.333,-15.930
-0.851,0.311,-0.444,20.813,6.653,-14.465
-0.870,0.307,-0.423,18.860,9.094,-12.085
-0.882,0.276,-0.405,15.564,10.254,-10.437
-0.879,0.241,-0.391,12.390,9.827,-10.620
-0.874,0.208,-0.377,10.986,8.240,-12.451
-0.864,0.184,-0.375,12.024,6.836,-14.954
-0.854,0.165,-0.384,16.357,5.188,-17.883
-0.833,0.177,-0.401,22.827,4.028,-20.630
-0.821,0.222,-0.417,29.419,3.967,-21.912
-0.814,0.282,-0.423,33.997,5.737,-21.606
-0.828,0.318,-0.419,35.706,9.155,-19.653
-0.845,0.322,-0.407,33.447,12.024,-17.883
-0.852,0.310,-0.389,28.564,13.611,-18.250
-0.854,0.295,-0.376,23.132,14.221,-20.508
-0.848,0.274,-0.367,18.677,13.123,-23.315
-0.847,0.267,-0.364,17.212,10.864,-26.123
-0.839,0.264,-0.368,20.264,8.789,-28.564
-0.829,0.260,-0.378,28.564,7.751,-30.090
-0.818,0.273,-0.386,41.138,8.545,-30.640
-0.809,0.293,-0.395,55.725,11.169,-29.846
-0.805,0.322,-0.395,69.641,15.137,-27.832
-0.797,0.373,-0.390,78.552,18.921,-26.489
-0.787,0.428,-0.383,77.576,20.935,-26.245
-0.774,0.441,-0.378,65.674,20.630,-27.039
-0.768,0.414,-0.377,47.241,18.555,-30.273
-0.747,0.382,-0.368,29.297,15.076,-35.583
-0.739,0.349,-0.368,17.944,12.207,-42.236
-0.727,0.326,-0.366,15.076,11.536,-48.157
-0.723,0.328,-0.354,21.118,12.207,-52.979
-0.726,0.334,-0.329,35.156,14.587,-56.213
-0.730,0.333,-0.305,56.213,18.799,-56.519
-0.720,0.341,-0.272,81.116,23.132,-54.565
-0.712,0.349,-0.251,106.567,26.001,-51.331
-0.695,0.352,-0.244,129.395,29.236,-48.401
-0.672,0.363,-0.243,145.142,30.762,-48.279
-0.656,0.373,-0.245,150.940,28.748,-51.941
-0.650,0.392,-0.244,149.597,23.926,-59.143
-0.653,0.440,-0.232,145.935,19.165,-68.176
-0.640,0.491,-0.212,145.447,17.761,-75.012
-0.637,0.505,-0.184,151.062,20.203,-76.721
-0.641,0.504,-0.172,164.856,24.902,-74.829
-0.642,0.521,-0.141,186.768,29.480,-73.425
-0.639,0.549,-0.106,214.050,32.654,-74.585
-0.625,0.593,-0.055,242.187,35.461,-77.576
-0.609,0.647,-0.009,264.343,36.377,-79.712
-0.614,0.689,0.045,275.696,35.645,-80.017
-0.629,0.710,0.099,274.658,33.752,-79.041
-0.646,0.718,0.139,265.259,30.334,-78.735
-0.635,0.719,0.172,252.441,24.353,-80.444
-0.620,0.710,0.197,240.662,17.639,-82.886
-0.600,0.714,0.219,233.398,12.634,-84.778
-0.575,0.710,0.235,231.750,10.254,-84.229
-0.554,0.693,0.248,233.704,11.353,-79.529

-0.944,1.293,0.633,-421.265,12.634,-59.082
-1.049,1.429,0.631,-450.562,10.071,-52.551
-1.161,1.537,0.609,-474.365,3.113,-38.086
-1.235,1.648,0.566,-499.084,-8.240,-19.531
-1.290,1.784,0.482,-527.161,-20.386,-0.549
-1.267,1.892,0.289,-555.359,-30.396,21.362
-1.332,1.965,0.085,-579.529,-32.410,43.884
-1.355,2.039,-0.134,-600.159,-28.625,61.218
-1.310,2.263,-0.350,-618.103,-8.728,73.059
-1.314,2.447,-0.575,-638.855,17.273,88.623
-1.387,2.603,-0.762,-640.381,39.185,112.549
-1.397,2.709,-0.981,-602.966,63.904,148.865
-1.376,2.764,-1.289,-536.804,90.393,196.777
-1.271,2.847,-1.630,-465.454,119.202,244.446
-1.068,3.084,-1.890,-420.349,146.851,276.550
-0.720,3.361,-2.070,-415.161,172.607,291.870
-0.261,3.472,-2.258,-435.791,199.341,302.612
0.258,3.357,-2.384,-455.505,230.774,316.406
0.749,2.992,-2.433,-455.139,269.958,325.256
1.102,2.526,-2.361,-423.279,314.575,320.496
1.342,2.168,-2.188,-357.910,360.168,308.960
1.460,1.958,-1.926,-276.245,395.630,295.471
1.526,1.807,-1.585,-194.641,419.189,279.114
1.664,1.721,-1.171,-122.131,433.228,261.963
1.700,1.614,-0.633,-64.819,436.157,253.723
1.579,1.490,-0.084,-24.963,426.208,252.686
1.340,1.354,0.317,-3.357,397.095,247.437
1.130,1.252,0.519,-3.235,340.698,234.070
1.017,1.111,0.542,-19.836,261.780,213.501
0.999,1.005,0.413,-50.781,177.917,190.186
1.113,0.895,0.204,-86.365,103.699,164.307
1.271,0.796,-0.000,-114.807,49.194,138.367
1.380,0.677,-0.162,-131.836,19.775,113.831
1.351,0.534,-0.252,-134.827,10.315,91.736
1.207,0.428,-0.281,-117.432,11.780,73.853
0.997,0.355,-0.271,-82.825,11.536,60.608
0.771,0.316,-0.180,-44.983,2.747,49.988
0.536,0.288,-0.143,-17.456,-10.254,41.931
0.341,0.286,-0.183,-7.507,-14.954,36.682
0.209,0.317,-0.313,-6.531,-4.272,33.936
0.079,0.293,-0.451,-6.287,10.803,27.771
-0.119,0.218,-0.451,-4.395,15.381,20.142
-0.322,0.174,-0.434,-1.526,14.832,12.634
-0.458,0.153,-0.442,1.526,18.066,3.052
-0.588,0.158,-0.450,1.404,19.226,-4.456
-0.701,0.176,-0.420,-0.061,16.235,-8.362
-0.805,0.180,-0.398,1.099,12.024,-9.705
-0.883,0.152,-0.400,2.930,6.592,-6.775
-0.926,0.109,-0.405,1.587,-0.244,-4.822
-0.932,0.083,-0.418,-1.648,-7.019,-7.629
-0.948,0.069,-0.441,-3.845,-12.268,-13.428
-0.954,0.052,-0.481,-2.808,-13.123,-19.165
-0.969,0.061,-0.541,1.526,-9.521,-23.132
-0.973,0.084,-0.591,9.583,-3.601,-24.719
-0.967,0.114,-0.596,19.104,4.944,-23.254
-0.981,0.151,-0.568,27.893,14.465,-20.203
-0.996,0.200,-0.528,33.936,21.912,-17.273
-0.998,0.234,-0.489,35.767,23.804,-15.259
-0.988,0.258,-0.448,33.386,22.278,-13.306
-0.979,0.282,-0.428,28.809,18.311,-11.719
-0.968,0.289,-0.434,23.499,12.207,-10.986
-0.967,0.275,-0.453,18.005,5.859,-10.498
-0.953,0.266,-0.484,11.841,0.427,-10.620
-0.916,0.265,-0.524,6.592,-2.808,-11.353
-0.888,0.247,-0.552,2.747,-2.869,-12.024
-0.871,0.223,-0.552,2.563,1.160,-12.939
-0.873,0.201,-0.531,6.104,7.446,-14.221
-0.877,0.195,-0.491,12.512,12.695,-15.991
-0.880,0.215,-0.440,19.409,15.503,-18.188
-0.895,0.239,-0.389,24.109,16.724,-19.714
-0.907,0.262,-0.354,26.794,18.066,-20.508
-0.925,0.284,-0.331,27.039,17.639,-20.325
-0.925,0.301,-0.320,25.696,15.442,-18.494
-0.912,0.300,-0.319,20.996,11.902,-16.235
-0.907,0.280,-0.324,13.367,8.606,-15.259
-0.893,0.242,-0.324,6.348,5.676,-16.418
-0.894,0.207,-0.320,2.502,2.625,-18.982
-0.886,0.189,-0.314,4.028,1.038,-22.278
-0.871,0.194,-0.327,11.230,0.854,-25.330
-0.855,0.217,-0.343,20.569,0.977,-26.978
-0.832,0.230,-0.359,29.602,2.014,-26.978
-0.818,0.233,-0.376,37.842,4.395,-26.978
-0.816,0.234,-0.390,45.471,7.385,-27.527
-0.815,0.233,-0.399,52.551,9.949,-28.137
-0.822,0.227,-0.398,58.716,11.536,-29.602
-0.826,0.243,-0.387,62.805,12.146,-32.288
-0.832,0.257,-0.372,63.171,11.108,-36.133
-0.840,0.263,-0.361,61.584,7.874,-41.443
-0.834,0.258,-0.351,61.768,3.540,-47.852
-0.837,0.255,-0.342,65.613,-0.366,-55.054
-0.823,0.289,-0.329,73.608,-3.906,-62.378
-0.797,0.340,-0.328,85.693,-7.324,-66.345
-0.774,0.392,-0.324,101.868,-10.010,-65.613
-0.752,0.442,-0.322,121.277,-9.888,-59.509
-0.740,0.474,-0.319,142.456,-6.958,-49.133
-0.727,0.477,-0.313,164.001,-2.014,-38.330
-0.714,0.452,-0.295,182.251,5.432,-31.067
-0.707,0.436,-0.273,195.557,14.099,-29.053
-0.708,0.417,-0.216,204.102,22.278,-31.860
-0.704,0.403,-0.169,209.839,31.372,-37.720
-0.700,0.406,-0.125,212.952,39.795,-44.678
-0.697,0.409,-0.083,215.454,45.166,-51.453
-0.695,0.422,-0.034,216.919,49.072,-55.725
-0.692,0.454,0.000,217.590,51.086,-57.617
-0.697,0.493,0.032,220.459,51.147,-57.434
-0.705,0.549,0.070,226.074,49.133,-54.871
-0.716,0.598,0.087,236.023,44.250,-47.852
-0.702,0.648,0.092,246.582,41.382,-36.682
-0.696,0.658,0.091,253.723,42.419,-22.766
-0.683,0.653,0.089,255.859,45.959,-10.193
-0.672,0.628,0.089,250.610,52.429,-2.625
-0.662,0.606,0.100,238.831,59.937,-0.732
-0.656,0.591,0.124,222.351,66.528,-4.517
-0.647,0.576,0.160,204.285,72.876,-12.390
-0.647,0.574,0.222,189.026,78.186,-20.813
-0.689,0.568,0.298,183.838,81.177,-24.231
-0.711,0.533,0.364,189.758,83.374,-20.996
-0.719,0.494,0.418,204.712,84.717,-11.719
-0.732,0.461,0.453,224.731,83.496,0.366

-1.061,1.471,0.289,-264.160,-40.283,-11.841
-1.227,1.630,0.288,-287.537,-41.077,6.104
-1.407,1.754,0.249,-306.824,-44.800,26.306
-1.514,1.931,0.193,-318.726,-45.288,45.227
-1.609,2.196,0.104,-326.111,-43.335,63.599
-1.661,2.495,-0.028,-330.261,-36.011,91.431
-1.676,2.845,-0.100,-335.449,-23.499,126.404
-1.663,3.287,-0.138,-347.351,-7.568,159.058
-1.659,3.766,-0.192,-365.845,9.033,192.078
-1.633,4.000,-0.264,-380.859,21.545,231.750
-1.513,4.000,-0.379,-388.062,29.907,274.536
-1.290,4.000,-0.563,-397.766,37.109,315.491
-0.971,4.000,-0.776,-413.391,40.588,347.412
-0.487,4.000,-1.023,-422.241,47.363,370.300
0.047,4.000,-1.220,-418.091,67.444,392.883
0.558,4.000,-1.312,-398.987,105.164,416.626
0.937,3.902,-1.326,-368.774,156.799,435.059
1.190,3.604,-1.295,-341.003,208.801,438.843
1.363,3.318,-1.192,-320.496,248.169,427.490
1.526,3.056,-0.985,-299.438,275.452,411.194
1.640,2.724,-0.750,-276.550,288.269,396.606
1.739,2.426,-0.602,-249.268,286.194,380.859
1.807,2.212,-0.467,-222.778,277.222,361.694
1.794,2.076,-0.301,-205.017,264.709,338.806
1.771,1.886,-0.162,-195.801,248.535,316.467
1.760,1.620,-0.066,-192.261,224.060,296.021
1.781,1.368,-0.049,-194.946,191.589,272.278
1.841,1.119,-0.074,-204.407,155.029,245.300
1.914,0.853,-0.048,-213.501,121.765,217.957
1.875,0.594,0.149,-214.783,98.022,189.880
1.870,0.323,0.159,-218.750,76.721,160.522
1.805,0.150,0.219,-212.341,59.753,124.878
1.647,-0.040,0.250,-182.861,60.120,98.328
1.373,-0.149,0.421,-146.362,49.683,70.740
1.125,-0.070,0.559,-112.488,17.883,41.443
0.867,0.005,0.594,-79.529,-4.150,28.931
0.875,0.107,0.387,-44.250,29.114,32.043
0.532,0.144,0.248,-12.268,66.345,33.875
0.139,0.137,0.314,12.146,52.185,30.823
-0.127,0.176,0.310,18.799,27.771,18.677
-0.323,0.260,0.223,6.531,10.864,0.488
-0.506,0.339,0.097,-12.329,-1.770,-13.306
-0.685,0.336,-0.002,-28.809,-16.296,-17.578
-0.825,0.322,-0.081,-39.551,-33.752,-14.343
-0.886,0.297,-0.200,-44.617,-48.828,-10.864
-0.921,0.258,-0.357,-44.434,-59.814,-7.080
-0.920,0.229,-0.494,-41.626,-63.965,-4.028
-0.927,0.196,-0.599,-37.048,-55.542,-2.869
-0.955,0.166,-0.656,-31.067,-35.461,-2.502
-1.009,0.140,-0.655,-23.865,-16.357,-2.197
-1.095,0.132,-0.611,-17.456,-3.479,-3.235
-1.176,0.120,-0.550,-12.146,1.221,-4.822
-1.207,0.113,-0.522,-8.057,0.000,-6.470
-1.226,0.117,-0.518,-2.991,-5.920,-6.775
-1.204,0.131,-0.531,4.883,-12.573,-4.944
-1.159,0.154,-0.552,12.024,-17.639,-2.502
-1.105,0.165,-0.571,12.878,-21.667,-1.099
-1.050,0.188,-0.590,9.155,-22.522,-2.808
-0.985,0.235,-0.622,4.517,-18.188,-4.761
-0.943,0.258,-0.628,-0.122,-9.644,-4.333
-0.955,0.251,-0.609,-4.578,-1.221,-3.418
-1.002,0.234,-0.570,-8.118,6.531,-3.723
-1.024,0.198,-0.522,-9.399,11.658,-3.845
-1.050,0.153,-0.483,-5.615,12.268,-3.174
-1.063,0.107,-0.458,4.639,10.864,-0.671
-1.045,0.080,-0.458,18.433,9.827,1.770
-1.013,0.069,-0.455,29.480,8.667,1.465
-0.994,0.085,-0.446,35.889,7.812,-0.916
-0.975,0.114,-0.444,37.231,8.362,-2.991
-0.958,0.151,-0.431,32.898,9.766,-3.357
-0.952,0.165,-0.427,23.132,10.986,-3.296
-0.957,0.159,-0.430,10.925,11.902,-3.235
-0.965,0.146,-0.426,1.404,11.719,-3.845
-0.967,0.148,-0.425,-1.221,11.353,-4.272
-0.971,0.132,-0.423,3.479,11.780,-2.869
-0.961,0.104,-0.425,13.367,13.367,0.854
-0.957,0.073,-0.415,21.851,15.442,2.930
-0.951,0.057,-0.395,27.344,18.066,1.282
-0.945,0.061,-0.375,30.029,20.325,-0.854
-0.935,0.085,-0.355,28.931,20.813,-2.380
-0.929,0.102,-0.338,24.597,20.386,-3.174
-0.912,0.125,-0.321,18.188,19.287,-4.333
-0.906,0.142,-0.313,12.146,17.273,-5.859
-0.909,0.149,-0.305,8.667,14.954,-6.714
-0.915,0.139,-0.305,8.728,13.550,-5.798
-0.929,0.122,-0.296,10.986,12.024,-4.944
-0.950,0.104,-0.286,14.709,10.681,-4.578
-0.972,0.088,-0.273,19.348,7.690,-4.639
-0.977,0.081,-0.264,24.780,4.150,-5.249
-0.976,0.086,-0.263,30.457,1.587,-5.920
-0.962,0.106,-0.264,36.072,-0.610,-6.165
-0.944,0.124,-0.273,39.307,-2.869,-6.165
-0.929,0.153,-0.292,38.391,-4.578,-6.653
-0.897,0.178,-0.324,32.959,-5.188,-7.812
-0.872,0.195,-0.351,23.621,-5.066,-9.460
-0.864,0.180,-0.358,13.672,-3.357,-11.780
-0.866,0.149,-0.358,6.592,-0.183,-14.771
-0.862,0.119,-0.349,4.395,2.686,-18.250
-0.854,0.086,-0.335,6.653,4.456,-22.766
-0.845,0.067,-0.316,12.146,5.615,-28.015
-0.830,0.071,-0.299,20.264,5.493,-32.898
-0.818,0.071,-0.278,31.555,3.601,-36.682
-0.803,0.098,-0.263,44.189,2.014,-39.978
-0.779,0.150,-0.260,55.298,1.709,-42.786
-0.748,0.198,-0.258,62.378,1.770,-42.725
-0.710,0.229,-0.258,64.697,2.502,-41.992
-0.699,0.243,-0.269,62.134,6.653,-45.044
-0.692,0.235,-0.286,56.396,14.038,-51.575
-0.697,0.222,-0.289,51.331,19.958,-59.753
-0.693,0.212,-0.280,50.964,23.560,-69.885
-0.689,0.201,-0.260,58.044,26.489,-79.651
-0.688,0.202,-0.245,70.679,28.564,-87.585
-0.679,0.202,-0.225,88.318,29.907,-93.323
-0.668,0.214,-0.205,109.741,30.396,-97.168
-0.651,0.217,-0.184,133.606,30.701,-100.159
-0.623,0.231,-0.164,158.447,31.494,-103.333
-0.589,0.298,-0.140,183.472,31.189,-107.544
-0.561,0.401,-0.137,203.552,31.250,-110.046
-0.515,0.490,-0.141,214.355,32.410,-107.483

-1.528,1.025,-0.767,-294.006,7.690,-14.832
-1.909,1.088,-1.001,-292.908,11.475,-5.676
-2.382,1.265,-1.261,-288.330,21.057,4.456
-2.802,1.693,-1.530,-302.673,32.593,19.348
-3.157,1.957,-1.849,-322.021,49.011,46.265
-3.403,2.216,-2.164,-345.032,64.636,84.839
-3.530,2.370,-2.599,-366.638,79.773,122.009
-3.448,2.330,-3.078,-372.009,105.042,158.386
-3.122,2.245,-3.511,-344.971,145.813,191.833
-2.585,2.388,-3.765,-296.082,202.881,216.003
-1.904,2.734,-3.849,-248.779,272.583,230.286
-1.226,3.186,-3.624,-216.492,341.980,250.366
-0.573,3.651,-3.405,-205.322,400.757,270.752
0.047,3.973,-3.280,-210.754,449.890,287.720
0.677,3.913,-3.081,-223.572,486.023,306.213
1.148,3.600,-2.684,-221.741,511.902,318.909
1.436,3.343,-2.159,-193.604,525.208,321.228
1.459,2.942,-1.566,-151.245,522.583,321.228
1.516,2.359,-0.679,-95.520,509.155,327.148
1.498,2.050,-0.159,-11.475,461.731,332.642
1.559,2.140,-0.055,64.148,364.746,327.820
1.776,2.795,-0.204,84.167,246.704,314.941
2.261,3.407,-0.808,38.025,119.751,303.223
3.034,3.333,-1.599,-68.665,2.991,299.683
3.748,2.477,-2.037,-195.618,-58.472,289.734
3.985,1.171,-2.033,-265.869,-53.223,263.550
3.712,0.140,-1.656,-237.915,2.380,230.225
3.205,-0.266,-0.794,-132.629,83.069,187.988
2.518,-0.286,0.278,-17.029,138.855,152.100
1.752,-0.088,1.100,35.461,140.991,118.835
1.147,0.051,1.460,4.639,90.576,74.463
0.722,0.131,1.379,-62.988,11.597,29.541
0.460,-0.009,1.011,-99.548,-51.208,0.977
0.177,-0.145,0.587,-85.693,-73.853,-8.850
-0.168,0.001,0.191,-32.776,-59.204,-17.395
-0.443,0.285,-0.152,34.668,-29.541,-25.696
-0.791,0.561,-0.358,75.745,-6.775,-31.433
-1.147,0.816,-0.563,68.176,-0.061,-40.283
-1.276,0.847,-0.711,24.841,-13.245,-44.800
-1.273,0.607,-0.767,-20.752,-27.649,-39.429
-1.299,0.318,-0.706,-44.006,-27.771,-31.616
-1.341,0.084,-0.636,-36.682,-19.409,-27.832
-1.353,0.025,-0.714,-12.024,-13.184,-26.855
-1.307,0.131,-0.905,7.263,-12.939,-29.358
-1.264,0.303,-1.091,13.733,-10.376,-31.250
-1.243,0.448,-1.186,10.376,-1.221,-28.259
-1.212,0.556,-1.151,4.578,11.963,-22.888
-1.134,0.570,-1.016,1.038,26.184,-15.808
-1.045,0.430,-0.787,-3.357,37.781,-7.324
-0.980,0.255,-0.492,-9.583,45.959,-2.930
-0.971,0.114,-0.265,-13.550,47.668,-2.319
-1.001,0.052,-0.155,-12.268,40.833,-3.845
-1.003,0.126,-0.191,-5.615,28.625,-5.798
-0.954,0.246,-0.307,3.052,16.479,-5.493
-0.897,0.335,-0.399,7.629,9.766,-3.418
-0.845,0.372,-0.417,6.348,9.277,-2.930
-0.807,0.340,-0.364,2.136,12.024,-1.099
-0.821,0.260,-0.284,-1.099,15.930,-0.183
-0.853,0.195,-0.203,-2.869,19.104,-0.427
-0.930,0.156,-0.149,-4.333,18.433,-0.061
-1.007,0.177,-0.164,-5.371,14.221,0.488
-1.015,0.205,-0.263,-5.432,6.042,1.282
-0.995,0.220,-0.392,-4.639,0.183,2.502
-0.957,0.220,-0.464,-0.793,0.732,3.784
-0.923,0.196,-0.451,4.578,6.104,5.859
-0.915,0.158,-0.380,7.446,12.756,6.897
-0.903,0.107,-0.294,7.019,16.418,6.531
-0.926,0.045,-0.245,2.747,16.296,5.737
-0.942,0.012,-0.242,-2.686,13.611,4.028
-0.949,0.013,-0.293,-5.310,9.094,1.465
-0.943,0.057,-0.359,-4.272,5.798,-1.404
-0.930,0.107,-0.400,0.427,5.676,-2.686
-0.910,0.134,-0.409,6.104,7.751,-2.014
-0.900,0.129,-0.390,8.850,11.169,-1.892
-0.894,0.127,-0.367,8.728,14.282,-3.418
-0.895,0.115,-0.362,8.118,15.686,-4.883
-0.885,0.141,-0.353,7.263,15.991,-6.897
-0.909,0.184,-0.363,4.028,15.259,-8.728
-0.911,0.206,-0.390,-0.854,13.062,-9.460
-0.883,0.226,-0.415,-5.615,10.681,-10.071
-0.869,0.220,-0.404,-8.728,10.254,-9.766
-0.878,0.181,-0.357,-7.935,11.353,-8.789
-0.879,0.145,-0.309,-3.906,11.719,-8.728
-0.882,0.124,-0.265,3.174,11.292,-9.033
-0.888,0.141,-0.244,10.498,12.207,-8.911
-0.912,0.186,-0.234,12.817,12.024,-9.766
-0.907,0.226,-0.242,9.338,9.705,-10.864
-0.898,0.247,-0.260,2.991,6.836,-11.841
-0.879,0.241,-0.270,-1.709,5.737,-12.390
-0.877,0.237,-0.273,-2.258,5.493,-12.695
-0.868,0.243,-0.279,0.793,6.226,-12.695
-0.870,0.250,-0.281,4.761,6.958,-13.062
-0.889,0.261,-0.275,8.728,7.874,-13.489
-0.911,0.266,-0.274,13.489,8.972,-13.611
-0.927,0.265,-0.280,16.907,8.850,-13.977
-0.938,0.270,-0.289,17.090,6.958,-14.832
-0.930,0.274,-0.309,14.282,4.272,-16.357
-0.918,0.272,-0.334,9.888,1.892,-17.456
-0.914,0.252,-0.342,7.141,-0.366,-18.372
-0.911,0.258,-0.343,7.996,-0.977,-19.470
-0.909,0.272,-0.342,12.268,-1.282,-18.982
-0.894,0.260,-0.353,17.090,-0.916,-16.846
-0.891,0.246,-0.363,19.226,0.488,-16.663
-0.894,0.231,-0.370,20.325,2.380,-19.592
-0.893,0.224,-0.374,23.132,4.028,-22.461
-0.895,0.205,-0.372,28.748,6.714,-23.865
-0.889,0.195,-0.364,35.217,8.301,-25.330
-0.885,0.186,-0.347,40.588,7.874,-27.710
-0.874,0.180,-0.318,42.664,5.371,-31.250
-0.854,0.189,-0.297,41.748,0.610,-35.706
-0.844,0.243,-0.283,40.039,-4.578,-39.917
-0.793,0.304,-0.302,41.260,-7.324,-42.786
-0.751,0.356,-0.334,45.654,-6.470,-42.542
-0.731,0.389,-0.363,47.180,-3.967,-40.833
-0.711,0.400,-0.365,46.265,-0.183,-39.673
-0.708,0.405,-0.358,43.884,3.906,-38.879
-0.722,0.409,-0.339,41.016,7.080,-38.025
-0.738,0.395,-0.299,38.635,9.766,-38.025
-0.761,0.387,-0.265,37.415,10.254,-38.879

-0.526,1.928,-0.261,-235.718,47.485,50.964
-0.439,2.012,-0.451,-262.878,45.471,59.082
-0.339,2.077,-0.641,-286.011,55.420,70.618
-0.306,2.107,-0.781,-301.392,74.524,89.050
-0.283,2.130,-0.860,-311.218,97.351,108.887
-0.293,2.100,-0.922,-319.641,117.554,123.108
-0.273,2.039,-0.974,-320.557,132.324,132.141
-0.256,1.984,-1.051,-307.068,144.775,141.174
-0.213,2.018,-1.160,-282.288,155.151,152.161
-0.169,2.099,-1.260,-263.306,164.978,164.490
-0.110,2.236,-1.351,-265.930,172.668,174.927
-0.044,2.307,-1.441,-292.419,176.331,184.326
0.046,2.225,-1.526,-334.595,178.406,190.796
0.152,1.959,-1.619,-373.352,182.190,191.101
0.280,1.641,-1.735,-387.817,192.200,186.035
0.397,1.313,-1.834,-368.042,210.144,178.528
0.504,1.051,-1.922,-318.726,232.666,168.579
0.595,0.987,-1.966,-251.953,254.944,157.166
0.681,1.104,-1.985,-183.716,280.212,150.696
0.717,1.270,-1.959,-134.521,301.941,148.743
0.768,1.390,-1.886,-116.516,312.988,147.522
0.765,1.430,-1.799,-122.925,315.735,145.447
0.738,1.338,-1.677,-139.709,310.181,142.761
0.725,1.138,-1.572,-147.461,301.880,141.907
0.725,0.944,-1.497,-140.198,293.579,139.526
0.755,0.823,-1.438,-122.986,287.537,129.822
0.791,0.776,-1.352,-98.389,285.217,117.615
0.843,0.817,-1.223,-70.740,284.668,110.352
0.850,0.816,-1.053,-47.241,284.424,110.413
0.786,0.753,-0.857,-31.616,282.227,112.427
0.694,0.685,-0.666,-24.231,274.231,111.389
0.597,0.603,-0.501,-23.193,257.935,107.910
0.500,0.503,-0.367,-25.452,237.915,103.333
0.416,0.406,-0.256,-29.358,216.553,97.351
0.333,0.302,-0.151,-34.485,194.092,89.966
0.271,0.212,-0.057,-38.086,170.410,79.895
0.241,0.177,-0.009,-38.086,147.095,68.970
0.260,0.165,-0.021,-37.048,126.160,61.096
0.258,0.153,-0.062,-37.537,110.229,54.871
0.231,0.118,-0.106,-38.757,100.220,45.532
0.206,0.092,-0.142,-38.513,90.759,34.424
0.175,0.086,-0.156,-34.912,79.773,24.231
0.130,0.114,-0.142,-27.710,68.481,15.625
0.060,0.143,-0.124,-18.921,56.580,10.010
-0.021,0.143,-0.105,-9.033,44.861,8.118
-0.115,0.169,-0.096,-1.038,34.241,6.409
-0.211,0.187,-0.109,3.662,24.597,3.418
-0.268,0.191,-0.157,4.211,17.883,0.244
-0.317,0.208,-0.218,2.136,16.541,-3.296
-0.357,0.237,-0.285,-0.549,17.456,-6.470
-0.400,0.253,-0.332,-3.052,18.127,-9.399
-0.474,0.287,-0.359,-5.188,19.958,-12.512
-0.559,0.364,-0.385,-6.042,22.156,-15.503
-0.641,0.412,-0.399,-3.784,22.522,-16.724
-0.722,0.417,-0.388,2.014,20.752,-13.184
-0.788,0.391,-0.364,9.460,17.212,-7.385
-0.829,0.355,-0.347,16.296,12.329,-2.869
-0.869,0.329,-0.326,19.287,6.714,-0.732
-0.883,0.334,-0.328,17.090,0.671,-0.488
-0.881,0.349,-0.366,9.399,-5.859,-1.221
-0.860,0.357,-0.423,0.244,-12.939,-1.892
-0.836,0.370,-0.487,-6.836,-15.808,-2.319
-0.823,0.377,-0.535,-11.780,-13.367,-1.953
-0.826,0.357,-0.561,-12.390,-7.202,0.122
-0.841,0.322,-0.545,-8.240,-0.366,3.784
-0.859,0.276,-0.509,-2.197,6.042,7.324
-0.877,0.243,-0.460,4.272,10.071,9.094
-0.888,0.225,-0.412,10.254,11.719,9.033
-0.899,0.224,-0.374,13.489,10.010,8.545
-0.907,0.239,-0.350,12.878,6.287,7.202
-0.907,0.258,-0.347,9.399,3.113,5.615
-0.898,0.263,-0.365,4.456,-0.122,4.089
-0.881,0.268,-0.390,-0.610,-3.357,2.747
-0.863,0.263,-0.411,-4.883,-6.226,1.953
-0.847,0.249,-0.426,-6.775,-7.263,1.831
-0.849,0.242,-0.441,-6.348,-6.775,1.709
-0.849,0.242,-0.442,-3.662,-5.676,1.221
-0.857,0.248,-0.426,0.244,-3.906,1.587
-0.857,0.248,-0.399,5.188,-1.709,3.296
-0.875,0.235,-0.371,8.911,0.305,5.310
-0.890,0.222,-0.345,10.986,0.488,6.226
-0.896,0.205,-0.330,11.230,-1.831,5.676
-0.897,0.185,-0.319,10.315,-5.371,5.005
-0.896,0.176,-0.324,8.911,-8.423,3.723
-0.894,0.175,-0.338,7.751,-10.559,1.831
-0.890,0.185,-0.355,7.385,-11.841,-0.183
-0.873,0.205,-0.379,8.179,-11.292,-1.831
-0.865,0.214,-0.391,9.033,-9.216,-2.258
-0.869,0.212,-0.392,9.155,-6.775,-2.625
-0.880,0.198,-0.384,9.399,-5.005,-3.723
-0.892,0.184,-0.372,10.254,-4.089,-4.944
-0.901,0.186,-0.359,12.878,-4.272,-6.226
-0.912,0.209,-0.353,16.113,-5.249,-7.690
-0.919,0.239,-0.358,18.066,-7.141,-7.996
-0.916,0.255,-0.366,17.822,-10.315,-6.653
-0.907,0.264,-0.379,14.954,-12.756,-5.493
-0.897,0.259,-0.404,10.376,-13.733,-5.188
-0.884,0.241,-0.427,5.798,-14.160,-5.432
-0.872,0.230,-0.441,3.784,-13.428,-5.798
-0.871,0.235,-0.453,5.005,-10.803,-5.920
-0.880,0.244,-0.447,8.118,-7.507,-5.310
-0.888,0.250,-0.442,11.658,-4.822,-4.822
-0.903,0.250,-0.430,14.526,-2.563,-4.822
-0.909,0.246,-0.416,15.137,-1.892,-4.883
-0.927,0.235,-0.390,15.564,-2.258,-5.310
-0.925,0.224,-0.376,17.456,-2.197,-5.249
-0.928,0.217,-0.367,20.386,-2.991,-5.127
-0.926,0.224,-0.363,23.132,-4.639,-5.615
-0.913,0.255,-0.366,24.597,-5.554,-6.348
-0.902,0.270,-0.379,22.461,-6.104,-6.042
-0.892,0.272,-0.389,16.296,-6.775,-5.737
-0.877,0.251,-0.396,11.047,-7.080,-6.348
-0.866,0.234,-0.404,7.874,-6.897,-7.507
-0.853,0.225,-0.406,7.690,-6.714,-9.155
-0.841,0.224,-0.402,10.315,-5.981,-10.559
-0.831,0.232,-0.399,14.954,-5.066,-11.597
-0.835,0.241,-0.378,19.958,-4.883,-12.512
-0.844,0.260,-0.373,26.062,-5.188,-12.817
-0.845,0.283,-0.379,30.823,-4.639,-12.573

-1.616,1.437,0.012,-377.014,73.669,-37.292
-1.997,1.729,-0.124,-369.385,70.251,-21.362
-2.374,2.210,-0.250,-353.638,74.646,1.160
-2.747,2.888,-0.379,-361.450,84.412,22.522
-3.121,3.617,-0.486,-413.269,84.595,45.654
-3.229,4.000,-0.714,-488.342,73.486,82.703
-3.254,4.000,-1.103,-551.697,61.951,133.118
-2.960,4.000,-1.633,-565.796,57.922,193.970
-2.341,4.000,-2.324,-521.851,74.890,254.272
-1.513,4.000,-2.970,-464.417,124.939,302.795
-0.587,4.000,-3.234,-432.983,199.280,331.360
0.293,4.000,-3.156,-415.649,295.410,355.225
0.856,4.000,-2.861,-400.757,392.883,375.488
1.326,3.889,-2.560,-385.742,463.257,383.240
1.507,3.633,-2.262,-357.971,502.441,382.996
1.539,3.280,-2.088,-312.500,509.155,380.554
1.604,3.034,-2.028,-267.029,494.324,371.155
1.817,2.811,-1.888,-234.558,472.595,357.422
2.066,2.338,-1.696,-211.487,440.918,346.558
2.177,1.780,-1.478,-179.687,409.790,330.933
2.192,1.422,-1.260,-131.470,380.737,308.228
2.181,1.222,-1.071,-74.219,342.346,285.767
2.155,1.133,-0.935,-24.353,292.114,272.461
2.170,0.981,-0.917,-7.385,233.459,266.663
2.281,0.774,-0.884,-39.551,168.213,253.296
2.410,0.452,-0.905,-100.342,110.657,227.051
2.515,0.095,-1.008,-144.348,72.021,192.505
2.550,-0.163,-1.022,-144.043,58.228,154.846
2.354,-0.160,-0.861,-104.919,67.017,119.141
2.005,-0.033,-0.578,-49.438,83.679,88.745
1.586,0.063,-0.230,-7.019,86.670,65.308
1.185,0.087,0.077,10.620,70.068,44.861
0.803,0.087,0.284,3.113,38.269,25.208
0.457,0.080,0.309,-16.968,1.648,8.240
0.207,0.060,0.217,-28.748,-21.362,1.587
-0.031,0.070,0.112,-27.588,-29.785,-0.916
-0.227,0.099,-0.023,-14.587,-32.227,-7.812
-0.396,0.176,-0.159,-0.610,-30.029,-18.494
-0.539,0.261,-0.263,8.972,-24.292,-28.625
-0.662,0.343,-0.342,11.597,-17.639,-34.424
-0.784,0.404,-0.366,4.089,-14.404,-36.011
-0.950,0.380,-0.364,-8.606,-16.296,-35.095
-1.082,0.318,-0.374,-19.287,-21.545,-33.630
-1.169,0.274,-0.397,-23.315,-29.358,-32.410
-1.194,0.267,-0.436,-19.043,-37.476,-30.640
-1.171,0.261,-0.489,-8.728,-42.053,-27.771
-1.130,0.260,-0.561,1.465,-42.114,-25.269
-1.062,0.263,-0.624,9.705,-36.804,-24.231
-1.007,0.232,-0.648,13.306,-29.297,-24.231
-0.961,0.190,-0.633,13.306,-22.827,-25.269
-0.926,0.186,-0.621,13.489,-14.221,-28.564
-0.918,0.210,-0.595,13.794,-5.127,-33.142
-0.931,0.267,-0.562,15.259,-0.244,-35.339
-0.963,0.311,-0.548,16.357,0.610,-33.752
-0.979,0.329,-0.558,13.550,-1.892,-31.494
-0.970,0.318,-0.589,8.728,-7.446,-29.846
-0.932,0.288,-0.624,6.836,-12.207,-28.442
-0.896,0.253,-0.647,8.789,-13.611,-28.015
-0.851,0.237,-0.668,14.587,-12.024,-28.137
-0.793,0.236,-0.666,21.973,-8.362,-27.710
-0.758,0.234,-0.640,27.649,-3.296,-26.672
-0.751,0.233,-0.597,32.349,4.211,-28.320
-0.752,0.243,-0.550,36.316,12.451,-31.982
-0.761,0.283,-0.501,37.964,16.602,-35.217
-0.790,0.322,-0.447,35.339,16.235,-36.133
-0.835,0.321,-0.399,32.898,12.573,-34.546
-0.859,0.278,-0.368,34.241,7.263,-30.518
-0.844,0.260,-0.373,37.415,1.221,-26.184
-0.810,0.235,-0.400,39.551,-4.333,-23.010
-0.776,0.199,-0.435,38.696,-9.094,-22.522
-0.746,0.172,-0.477,37.842,-12.451,-24.902
-0.715,0.146,-0.499,40.955,-12.512,-28.625
-0.723,0.150,-0.496,50.842,-9.766,-33.020
-0.718,0.180,-0.479,68.481,-4.089,-37.598
-0.725,0.220,-0.453,89.600,1.526,-41.748
-0.725,0.298,-0.421,109.314,5.798,-43.457
-0.707,0.382,-0.403,122.742,8.362,-40.771
-0.703,0.418,-0.402,124.695,9.399,-34.851
-0.704,0.410,-0.394,115.723,9.460,-30.334
-0.717,0.378,-0.385,100.464,8.728,-31.006
-0.731,0.339,-0.402,82.825,5.066,-35.156
-0.730,0.306,-0.420,67.688,-1.404,-40.710
-0.706,0.305,-0.439,59.021,-7.263,-46.082
-0.690,0.304,-0.464,58.594,-9.705,-49.133
-0.682,0.327,-0.421,64.636,-7.874,-50.903
-0.691,0.339,-0.409,84.106,-3.540,-51.941
-0.692,0.355,-0.389,110.779,1.648,-51.514
-0.688,0.388,-0.354,137.695,5.310,-50.232
-0.681,0.441,-0.320,161.133,7.141,-48.279
-0.692,0.461,-0.285,178.772,7.263,-44.434
-0.684,0.473,-0.275,187.561,4.456,-41.077
-0.659,0.472,-0.285,185.913,-1.099,-41.321
-0.618,0.462,-0.302,174.683,-7.751,-45.776
-0.593,0.474,-0.310,158.142,-13.855,-54.504
-0.569,0.483,-0.297,144.714,-17.517,-65.735
-0.553,0.485,-0.268,139.954,-17.273,-74.951
-0.550,0.504,-0.219,145.630,-14.587,-80.688
-0.555,0.542,-0.166,160.706,-11.475,-82.153
-0.555,0.580,-0.118,181.580,-7.690,-78.125
-0.565,0.636,-0.065,202.026,-5.493,-69.946
-0.583,0.685,-0.041,218.689,-6.592,-60.242
-0.579,0.712,-0.045,225.647,-9.521,-50.354
-0.561,0.731,-0.058,217.834,-13.428,-45.776
-0.532,0.739,-0.073,194.397,-17.761,-49.744
-0.502,0.749,-0.079,161.865,-22.766,-62.378
-0.473,0.741,-0.058,132.812,-25.818,-78.857
-0.466,0.709,-0.025,114.624,-21.729,-91.309
-0.479,0.681,0.024,110.657,-14.099,-98.694
-0.482,0.651,0.085,122.559,-7.080,-100.525
-0.498,0.654,0.153,147.705,-1.221,-96.191
-0.512,0.681,0.208,181.885,3.784,-85.083
-0.520,0.718,0.219,215.576,7.263,-67.627
-0.511,0.781,0.224,235.291,9.094,-49.683
-0.510,0.816,0.197,233.398,7.935,-41.809
-0.500,0.842,0.166,210.876,5.310,-47.791
-0.484,0.859,0.135,173.279,0.916,-63.416
-0.465,0.864,0.122,129.883,-2.625,-82.825
-0.450,0.828,0.128,90.576,-2.747,-99.915
-0.449,0.760,0.146,64.026,1.526,-112.122

-1.664,1.413,-0.269,-119.873,34.424,-164.551
-1.809,2.005,-0.487,-82.458,26.123,-147.522
-1.934,2.777,-0.531,-34.485,36.865,-99.487
-2.083,3.479,-0.340,-15.564,61.646,-32.043
-2.271,4.000,0.081,-57.495,80.933,26.794
-2.358,4.000,0.492,-150.208,77.942,73.059
-2.235,4.000,0.791,-249.146,64.819,113.647
-1.880,4.000,0.889,-326.050,43.762,164.795
-1.449,4.000,0.754,-367.676,31.860,225.586
-0.961,4.000,0.508,-365.356,40.771,292.053
-0.424,4.000,0.379,-326.233,69.519,365.601
0.161,4.000,0.441,-284.546,106.140,444.580
0.690,4.000,0.694,-279.602,137.878,518.311
1.080,4.000,0.834,-322.693,158.508,571.472
1.319,4.000,0.858,-380.005,170.471,586.609
1.481,3.615,0.753,-427.429,175.293,568.604
1.670,3.124,0.609,-453.796,173.950,538.452
1.969,2.656,0.480,-446.167,173.645,504.272
2.088,2.249,0.399,-412.170,177.673,469.666
2.071,1.857,0.412,-365.112,187.256,433.472
1.953,1.583,0.419,-313.965,193.054,394.897
1.791,1.488,0.332,-272.156,188.171,349.487
1.693,1.506,0.152,-246.826,164.673,304.810
1.637,1.497,-0.097,-228.943,123.962,271.790
1.604,1.320,-0.368,-212.036,80.078,255.676
1.578,1.094,-0.560,-203.125,44.617,246.033
1.550,0.874,-0.692,-207.031,20.386,227.417
1.554,0.642,-0.818,-211.914,7.385,199.829
1.539,0.427,-0.904,-201.538,7.935,173.584
1.452,0.241,-0.962,-173.523,23.682,153.198
1.262,0.090,-0.953,-137.024,47.974,135.010
1.041,0.039,-0.854,-100.586,69.519,113.586
0.853,0.101,-0.707,-66.772,84.961,89.111
0.642,0.150,-0.530,-37.231,93.872,65.796
0.459,0.138,-0.330,-13.916,92.346,49.011
0.266,0.097,-0.156,2.502,80.017,37.659
0.102,0.099,-0.064,12.817,63.599,29.846
-0.024,0.144,-0.044,20.691,51.819,27.100
-0.116,0.209,-0.064,27.588,48.340,27.588
-0.241,0.240,-0.065,31.128,47.607,25.452
-0.368,0.230,-0.056,25.635,46.082,18.982
-0.496,0.224,-0.073,12.451,43.579,7.446
-0.603,0.237,-0.090,-0.366,37.354,-4.089
-0.687,0.249,-0.112,-5.432,28.931,-12.207
-0.750,0.287,-0.125,-1.953,19.897,-15.991
-0.796,0.328,-0.137,6.775,12.573,-14.893
-0.838,0.391,-0.140,13.672,7.507,-11.414
-0.867,0.428,-0.142,13.306,2.258,-7.263
-0.899,0.414,-0.145,6.287,-3.723,-4.211
-0.917,0.371,-0.146,-0.488,-9.583,-2.808
-0.922,0.338,-0.166,-4.578,-12.695,-2.197
-0.914,0.304,-0.204,-7.629,-14.709,-3.052
-0.895,0.288,-0.250,-9.399,-16.052,-4.639
-0.890,0.272,-0.298,-7.874,-13.611,-6.287
-0.884,0.271,-0.329,-3.052,-9.460,-8.545
-0.884,0.270,-0.340,5.920,-5.615,-9.155
-0.900,0.266,-0.326,18.127,-1.526,-7.568
-0.904,0.269,-0.310,29.175,1.038,-4.639
-0.915,0.269,-0.294,33.325,0.916,-1.831
-0.927,0.260,-0.281,29.175,-1.648,-0.977
-0.934,0.259,-0.279,19.409,-7.263,-3.296
-0.935,0.259,-0.293,9.827,-14.221,-7.019
-0.918,0.261,-0.323,5.127,-19.531,-10.193
-0.891,0.272,-0.366,5.920,-21.729,-11.780
-0.862,0.271,-0.403,11.963,-20.935,-11.719
-0.839,0.283,-0.408,20.691,-17.334,-10.742
-0.838,0.293,-0.404,29.297,-13.428,-9.216
-0.853,0.294,-0.389,36.743,-10.498,-6.409
-0.857,0.294,-0.371,40.405,-7.507,-4.395
-0.877,0.292,-0.346,38.574,-6.104,-4.700
-0.889,0.290,-0.336,32.715,-6.653,-6.409
-0.891,0.282,-0.325,24.780,-8.667,-9.399
-0.886,0.256,-0.329,17.578,-13.245,-12.329
-0.877,0.226,-0.333,13.245,-16.541,-14.771
-0.863,0.207,-0.340,13.794,-18.372,-17.639
-0.840,0.206,-0.362,18.372,-17.578,-19.409
-0.819,0.214,-0.381,24.780,-14.404,-20.447
-0.801,0.215,-0.399,31.738,-9.033,-20.386
-0.791,0.223,-0.414,37.842,-1.953,-20.325
-0.797,0.255,-0.402,41.443,5.310,-21.545
-0.802,0.277,-0.396,41.626,10.620,-23.193
-0.810,0.285,-0.384,36.438,13.672,-24.902
-0.817,0.280,-0.363,27.954,13.611,-27.893
-0.825,0.269,-0.351,20.813,11.292,-32.288
-0.835,0.262,-0.337,17.395,7.507,-37.231
-0.831,0.252,-0.328,22.400,3.662,-40.771
-0.824,0.241,-0.321,35.034,2.747,-43.091
-0.813,0.226,-0.314,52.063,3.296,-45.105
-0.787,0.224,-0.323,71.106,4.089,-47.668
-0.759,0.248,-0.346,87.585,5.920,-49.561
-0.720,0.295,-0.381,97.839,7.080,-50.232
-0.668,0.350,-0.421,99.304,7.568,-48.889
-0.648,0.387,-0.432,94.849,8.728,-48.401
-0.633,0.425,-0.420,90.942,13.367,-52.612
-0.645,0.453,-0.386,92.651,22.034,-57.556
-0.667,0.474,-0.317,100.220,31.189,-59.326
-0.715,0.471,-0.241,113.220,38.269,-58.716
-0.749,0.441,-0.170,128.296,41.931,-55.969
-0.767,0.418,-0.115,142.578,41.443,-53.406
-0.758,0.421,-0.093,150.696,37.537,-53.406
-0.743,0.431,-0.105,149.170,30.701,-54.199
-0.703,0.456,-0.117,138.184,19.653,-57.068
-0.641,0.509,-0.141,124.146,8.118,-62.500
-0.579,0.592,-0.171,112.183,3.906,-67.139
-0.534,0.653,-0.192,104.248,8.118,-68.359
-0.511,0.683,-0.187,101.624,17.639,-65.735
-0.527,0.689,-0.151,104.736,29.358,-61.768
-0.569,0.664,-0.105,109.924,40.894,-57.678
-0.631,0.617,-0.064,113.831,46.936,-53.894
-0.670,0.564,-0.031,113.159,45.166,-52.124
-0.679,0.511,-0.018,105.469,36.438,-55.298
-0.637,0.490,-0.007,93.567,22.888,-64.636
-0.561,0.525,0.013,85.815,9.827,-75.806
-0.491,0.591,0.018,85.999,7.019,-82.031
-0.454,0.636,0.024,94.177,15.320,-80.078
-0.435,0.683,0.053,107.422,28.381,-73.730
-0.444,0.698,0.097,122.925,43.518,-67.810
-0.487,0.686,0.143,136.108,58.411,-63.232
-0.545,0.679,0.187,141.968,67.078,-61.096

-1.008,1.481,0.379,-244.507,41.321,-53.284
-1.284,1.656,0.319,-286.133,42.053,-45.532
-1.578,1.948,0.412,-328.186,39.795,-32.288
-1.908,2.252,0.552,-377.747,31.006,-11.719
-2.195,2.569,0.661,-439.880,13.794,13.062
-2.449,2.887,0.520,-512.451,-18.005,38.940
-2.502,3.109,0.025,-566.040,-54.871,69.397
-2.284,3.395,-0.714,-554.626,-70.007,112.427
-2.077,3.854,-1.330,-485.962,-44.312,171.753
-1.836,4.000,-1.760,-427.734,2.625,232.544
-1.483,4.000,-1.777,-434.998,56.946,277.527
-1.109,4.000,-1.595,-503.662,96.191,315.247
-0.512,4.000,-1.491,-579.346,126.587,356.445
0.141,4.000,-1.525,-632.080,155.396,391.663
0.823,3.893,-1.679,-644.958,183.472,408.813
1.444,3.170,-1.863,-599.854,230.530,404.785
1.940,2.667,-1.891,-502.563,295.898,385.071
2.248,2.448,-1.728,-386.780,365.845,363.403
2.384,2.386,-1.379,-291.992,416.382,340.637
2.343,2.381,-0.973,-238.892,447.632,307.068
2.059,2.207,-0.454,-222.534,465.820,270.325
1.718,1.863,-0.021,-199.585,460.754,240.601
1.364,1.670,0.153,-148.437,422.363,223.511
1.169,1.624,0.039,-84.595,358.948,210.937
1.282,1.700,-0.284,-32.532,272.156,200.928
1.624,1.930,-0.612,-9.644,183.289,199.829
2.053,1.995,-0.913,-23.010,121.704,202.393
2.356,1.777,-1.114,-68.176,85.632,201.233
2.487,1.410,-1.083,-117.798,69.153,187.683
2.457,1.078,-0.871,-136.414,72.449,164.612
2.265,0.838,-0.640,-118.835,86.731,148.071
1.960,0.591,-0.431,-80.872,96.924,141.113
1.631,0.398,-0.210,-41.382,96.985,133.301
1.299,0.238,0.012,-8.423,89.417,120.850
0.944,0.121,0.171,13.428,77.637,106.689
0.623,0.055,0.266,19.714,57.556,89.355
0.359,0.019,0.295,10.986,26.001,68.665
0.112,0.035,0.251,-3.784,-10.681,46.265
-0.026,0.120,0.148,-12.634,-36.011,32.349
-0.095,0.178,-0.041,-16.235,-36.316,34.790
-0.163,0.212,-0.253,-16.541,-18.311,40.833
-0.295,0.167,-0.394,-13.916,0.671,38.452
-0.444,0.106,-0.459,-11.841,11.475,27.832
-0.595,0.099,-0.473,-8.057,11.902,18.677
-0.696,0.111,-0.490,-1.343,9.460,12.878
-0.770,0.071,-0.519,7.080,4.944,9.705
-0.804,0.015,-0.549,15.747,-1.282,7.141
-0.809,-0.020,-0.567,24.048,-7.263,1.831
-0.801,-0.040,-0.566,34.424,-11.353,-5.432
-0.776,0.005,-0.564,46.448,-13.489,-13.000
-0.724,0.112,-0.564,56.091,-14.587,-17.822
-0.683,0.196,-0.563,59.570,-13.977,-19.592
-0.645,0.263,-0.541,58.960,-12.085,-20.691
-0.597,0.299,-0.511,56.458,-8.118,-21.606
-0.565,0.299,-0.502,54.077,1.526,-24.475
-0.560,0.253,-0.497,53.833,13.916,-30.090
-0.566,0.193,-0.460,58.777,21.301,-34.668
-0.580,0.134,-0.416,71.777,24.048,-38.635
-0.593,0.105,-0.388,92.407,24.719,-43.335
-0.590,0.117,-0.376,115.784,22.034,-48.889
-0.561,0.182,-0.377,136.108,16.235,-56.274
-0.517,0.255,-0.387,148.743,9.766,-64.209
-0.477,0.364,-0.408,153.931,4.456,-72.205
-0.433,0.489,-0.440,153.564,2.686,-77.148
-0.394,0.581,-0.465,147.522,4.089,-76.782
-0.375,0.613,-0.473,136.719,8.057,-71.777
-0.407,0.589,-0.460,123.840,13.000,-67.505
-0.445,0.547,-0.427,114.258,18.188,-69.397
-0.464,0.496,-0.379,110.229,22.339,-74.768
-0.488,0.453,-0.317,113.892,25.085,-81.055
-0.505,0.419,-0.263,127.747,27.649,-86.853
-0.510,0.391,-0.204,151.855,30.884,-90.271
-0.487,0.413,-0.178,180.908,34.241,-90.454
-0.456,0.496,-0.155,206.848,38.147,-85.266
-0.426,0.565,-0.163,222.107,40.710,-76.477
-0.403,0.636,-0.174,220.337,40.894,-70.984
-0.369,0.682,-0.153,203.979,40.161,-72.815
-0.346,0.730,-0.110,181.396,39.368,-81.238
-0.348,0.734,-0.068,163.391,41.321,-89.111
-0.349,0.697,-0.008,157.532,49.377,-93.201
-0.375,0.653,0.061,161.987,60.181,-94.604
-0.424,0.594,0.135,173.096,69.275,-94.543
-0.444,0.552,0.167,185.547,73.547,-95.093
-0.434,0.561,0.185,193.054,72.083,-97.656
-0.396,0.650,0.197,189.087,65.369,-101.990
-0.337,0.750,0.190,168.640,54.871,-107.361
-0.283,0.826,0.182,136.108,41.016,-115.356
-0.220,0.854,0.186,103.516,29.785,-124.939
-0.188,0.856,0.229,78.979,29.785,-132.019
-0.211,0.809,0.278,70.007,39.246,-136.658
-0.253,0.743,0.306,78.369,53.955,-139.648
-0.268,0.703,0.325,100.769,68.176,-140.686
-0.276,0.737,0.334,129.822,76.660,-138.794
-0.242,0.816,0.394,159.729,82.031,-133.179
-0.227,0.996,0.463,179.932,85.510,-126.953
-0.252,1.129,0.513,175.781,87.891,-119.263
-0.277,1.177,0.547,145.874,86.914,-119.751
-0.296,1.149,0.579,100.464,80.627,-129.883
-0.329,1.072,0.611,48.950,71.228,-145.447
-0.349,0.991,0.636,8.972,61.096,-163.879
-0.346,1.007,0.631,-9.155,53.345,-181.030
-0.336,1.024,0.626,-3.540,45.715,-187.378
-0.299,1.073,0.591,24.658,44.128,-182.922
-0.264,1.178,0.582,66.162,48.706,-167.908
-0.293,1.306,0.566,104.248,58.411,-143.555
-0.294,1.339,0.600,122.925,67.444,-120.300
-0.360,1.362,0.645,117.249,70.923,-105.652
-0.422,1.281,0.724,90.027,63.110,-108.948
-0.448,1.223,0.778,49.072,52.429,-119.080
-0.428,1.170,0.791,10.071,42.419,-134.094
-0.412,1.126,0.766,-17.639,30.945,-146.790
-0.390,1.135,0.759,-30.273,17.029,-153.870
-0.384,1.159,0.736,-24.292,5.249,-152.832
-0.361,1.197,0.707,-5.981,-1.587,-142.578
-0.322,1.226,0.678,13.672,-3.113,-126.099
-0.310,1.214,0.627,27.100,-1.648,-108.154
-0.293,1.180,0.595,33.386,3.113,-94.849
-0.290,1.145,0.602,33.752,9.033,-87.524
-0.312,1.103,0.619,27.466,12.207,-84.656

-1.902,1.411,-0.502,-316.589,-61.035,-41.931
-2.372,1.360,-0.845,-355.225,-84.473,-34.485
-2.671,1.430,-1.227,-325.562,-82.336,-20.813
-2.891,1.835,-1.634,-242.798,-53.101,6.897
-3.123,2.557,-1.925,-156.311,-9.399,50.110
-3.358,3.454,-2.104,-124.390,30.945,99.670
-3.438,4.000,-2.111,-171.570,48.340,150.818
-3.344,4.000,-2.083,-267.944,49.072,205.688
-2.930,4.000,-2.138,-367.676,46.997,259.216
-2.239,4.000,-2.297,-417.908,58.716,311.646
-1.427,4.000,-2.362,-406.677,96.985,361.877
-0.300,4.000,-2.362,-346.802,161.682,395.813
0.122,4.000,-2.334,-267.822,236.084,437.317
0.965,4.000,-2.017,-197.327,325.439,482.788
1.530,4.000,-1.535,-159.302,402.710,511.169
1.826,4.000,-0.948,-160.034,447.937,530.090
1.986,4.000,-0.378,-173.462,458.557,527.954
1.882,3.457,0.080,-178.833,447.998,505.798
1.656,2.737,0.581,-160.095,429.810,470.154
1.470,2.353,0.857,-120.117,388.245,432.678
1.290,2.266,0.881,-73.547,314.575,390.564
1.318,2.421,0.672,-32.104,225.952,348.999
1.532,2.615,0.264,-8.850,137.207,322.876
1.948,2.663,-0.143,-25.452,61.646,311.829
2.236,2.350,-0.470,-86.975,9.338,297.729
2.339,1.830,-0.707,-156.921,-16.235,264.832
2.287,1.350,-0.810,-189.453,-13.672,225.891
2.140,0.975,-0.752,-173.706,-3.296,202.515
2.021,0.751,-0.631,-127.197,4.517,190.369
1.836,0.633,-0.536,-83.252,2.380,179.626
1.622,0.621,-0.434,-59.143,-10.132,158.447
1.412,0.639,-0.344,-56.030,-31.311,129.639
1.256,0.594,-0.343,-69.092,-56.885,101.746
1.191,0.515,-0.386,-86.121,-81.970,80.383
1.143,0.415,-0.412,-93.079,-88.013,77.209
1.012,0.284,-0.412,-87.036,-62.622,83.740
0.744,0.121,-0.335,-71.289,-28.687,83.069
0.526,0.043,-0.192,-50.354,-9.399,65.918
0.328,0.036,-0.089,-34.424,-1.831,43.091
0.153,0.054,-0.037,-23.987,-3.357,24.414
0.025,0.051,-0.047,-14.343,-10.559,8.057
-0.089,0.062,-0.104,-2.563,-20.630,-6.836
-0.141,0.100,-0.194,11.475,-31.006,-20.569
-0.173,0.120,-0.290,22.339,-39.246,-31.433
-0.218,0.130,-0.373,27.649,-44.678,-41.260
-0.264,0.187,-0.446,34.546,-47.424,-51.941
-0.277,0.252,-0.523,45.288,-44.128,-60.730
-0.325,0.290,-0.547,57.800,-34.363,-67.505
-0.381,0.327,-0.515,73.975,-19.348,-75.562
-0.453,0.374,-0.450,93.384,-4.578,-84.167
-0.525,0.394,-0.366,112.366,4.211,-92.041
-0.588,0.393,-0.285,127.808,6.714,-99.304
-0.627,0.456,-0.257,136.902,4.028,-107.666
-0.612,0.545,-0.300,134.949,-4.700,-116.394
-0.568,0.611,-0.389,115.967,-19.104,-123.596
-0.550,0.664,-0.484,85.510,-35.828,-130.371
-0.561,0.703,-0.571,59.937,-45.593,-137.878
-0.576,0.686,-0.628,49.744,-44.434,-144.104
-0.594,0.673,-0.611,57.739,-34.851,-146.179
-0.635,0.650,-0.551,82.886,-19.409,-144.653
-0.719,0.641,-0.446,117.981,-0.305,-139.526
-0.778,0.699,-0.364,148.682,17.212,-134.949
-0.815,0.736,-0.330,161.072,23.254,-135.498
-0.828,0.792,-0.327,153.687,15.442,-140.564
-0.790,0.864,-0.375,131.470,-0.610,-148.376
-0.733,0.930,-0.445,102.234,-19.653,-155.823
-0.673,0.969,-0.505,73.730,-36.499,-160.339
-0.618,0.966,-0.504,53.284,-44.373,-161.987
-0.617,0.936,-0.471,45.227,-43.274,-159.424
-0.627,0.901,-0.407,52.429,-37.170,-155.518
-0.642,0.874,-0.331,73.608,-29.114,-151.672
-0.676,0.859,-0.275,100.769,-19.653,-147.705
-0.671,0.862,-0.233,123.901,-13.428,-143.433
-0.669,0.915,-0.217,135.864,-11.902,-141.418
-0.646,1.005,-0.243,133.362,-17.700,-141.724
-0.589,1.067,-0.290,117.554,-25.513,-141.113
-0.556,1.065,-0.331,91.187,-34.668,-142.151
-0.515,1.045,-0.360,64.209,-42.480,-146.790
-0.481,1.012,-0.367,45.288,-47.546,-151.611
-0.445,0.955,-0.365,39.063,-48.645,-154.053
-0.427,0.896,-0.325,47.913,-46.936,-153.870
-0.429,0.848,-0.274,71.655,-42.664,-150.085
-0.388,0.825,-0.249,106.445,-35.767,-143.982
-0.337,0.893,-0.203,143.127,-27.832,-139.648
-0.282,1.009,-0.154,169.067,-20.691,-133.484
-0.268,1.118,-0.127,175.964,-13.306,-128.662
-0.226,1.157,-0.091,167.297,-10.803,-128.357
-0.226,1.183,-0.033,150.208,-11.414,-130.005
-0.225,1.168,0.036,132.141,-19.897,-138.611
-0.181,1.138,0.081,123.657,-27.161,-142.212
-0.166,1.089,0.108,128.967,-26.917,-139.893
-0.149,0.999,0.118,145.874,-21.057,-135.132
-0.150,0.929,0.153,169.617,-15.442,-132.019
-0.155,0.988,0.225,193.909,-11.597,-131.409
-0.093,1.146,0.254,209.106,-9.644,-130.127
-0.080,1.258,0.245,205.750,-9.216,-125.183
-0.089,1.296,0.240,187.134,-8.057,-121.521
-0.121,1.297,0.237,165.955,-5.127,-122.253
-0.139,1.275,0.249,149.963,-1.953,-124.329
-0.147,1.221,0.271,139.404,0.793,-126.709
-0.159,1.164,0.304,136.475,4.333,-128.723
-0.174,1.123,0.357,142.578,8.911,-129.639
-0.197,1.158,0.440,156.677,11.536,-127.686
-0.215,1.249,0.500,174.561,11.047,-116.333
-0.205,1.298,0.502,186.829,10.254,-94.604
-0.217,1.298,0.491,181.152,8.118,-74.280
-0.246,1.294,0.486,160.339,6.836,-65.063
-0.262,1.289,0.477,126.404,7.263,-66.589
-0.291,1.247,0.480,80.322,2.502,-74.951
-0.298,1.185,0.491,32.349,-6.775,-85.510
-0.283,1.129,0.513,-4.150,-16.113,-95.154
-0.278,1.059,0.524,-24.353,-24.170,-99.365
-0.267,0.998,0.523,-27.222,-30.579,-96.558
-0.245,0.963,0.515,-14.587,-32.959,-88.867
-0.209,0.938,0.500,5.920,-30.701,-77.209
-0.189,0.919,0.479,25.391,-26.611,-64.453
-0.177,0.909,0.469,40.466,-23.315,-53.406
-0.155,0.914,0.465,48.767,-20.569,-44.800
-0.142,0.915,0.460,46.875,-18.372,-39.978

-0.281,-0.067,1.091,-92.102,47.363,17.151
-0.260,-0.027,0.954,-161.133,49.927,22.339
-0.319,0.019,0.933,-125.244,40.466,16.907
-0.248,0.054,0.895,-65.308,14.160,9.460
-0.120,0.201,0.961,17.639,-18.921,-4.089
-0.131,0.231,0.788,129.761,-68.359,-14.221
-0.725,-0.156,0.667,231.567,-92.712,-20.386
-0.196,-0.145,0.809,191.467,4.333,-19.043
-0.178,-0.213,1.075,41.809,15.503,-1.770
-0.402,0.120,1.018,-101.196,-18.982,14.709
-0.141,0.187,0.918,-99.609,1.709,14.893
-0.424,0.014,0.807,22.095,-17.639,5.859
-0.194,-0.144,0.908,60.242,-9.766,3.296
-0.206,0.013,0.949,-20.386,-3.967,9.583
-0.199,-0.200,0.812,-12.207,1.038,4.700
-0.228,-0.156,0.875,9.460,11.047,-8.972
-0.164,-0.037,1.033,0.671,19.531,-18.127
-0.161,0.089,1.189,3.845,17.700,-19.104
-0.158,0.086,1.172,2.747,3.906,-12.390
-0.184,0.064,1.059,0.366,-10.315,-5.615
-0.190,0.045,0.930,-0.610,-18.555,-0.122
-0.178,0.080,0.753,-1.282,-17.578,5.188
-0.170,0.300,0.433,-14.038,-1.953,15.503
-0.107,0.185,0.979,-41.748,40.833,40.039
-0.462,-0.087,1.125,8.057,34.058,45.776
-0.235,-0.254,1.342,51.636,15.320,32.654
-0.203,0.055,1.072,-24.719,-6.897,28.076
-0.206,0.031,0.847,-13.367,-17.395,29.175
-0.163,0.112,0.825,0.183,-10.925,31.677
-0.189,-0.156,0.939,-4.578,-0.305,35.645
-0.220,-0.543,0.930,0.366,4.944,28.076
-0.184,-0.213,1.010,-2.869,6.165,3.479
-0.151,-0.033,1.025,-4.456,3.845,-9.216
-0.171,0.055,0.969,-0.854,-0.061,-2.502
-0.204,0.058,0.967,-0.671,-0.977,9.338
-0.216,0.003,1.012,-2.319,-0.977,17.883
-0.172,-0.023,1.086,-5.188,-3.906,23.560
-0.191,-0.011,1.194,-11.475,-10.437,25.818
-0.233,0.010,1.204,-33.813,-16.174,16.602
-0.232,0.111,1.093,-59.387,-23.315,2.319
-0.166,0.161,1.060,-73.792,-27.954,-5.005
-0.113,0.128,1.114,-75.623,-31.494,-12.207
-0.146,0.121,1.169,-78.979,-38.086,-21.118
-0.193,0.225,1.150,-92.651,-44.373,-33.508
-0.189,0.316,1.135,-105.408,-53.406,-46.631
-0.162,0.273,1.154,-110.168,-65.735,-60.181
-0.168,0.167,1.225,-107.239,-79.834,-74.463
-0.204,0.138,1.302,-100.098,-88.318,-83.984
-0.232,0.176,1.283,-86.060,-85.327,-81.055
-0.258,0.219,1.227,-66.528,-71.106,-64.941
-0.277,0.262,1.209,-46.631,-51.208,-41.321
-0.280,0.324,1.173,-34.424,-35.400,-18.799
-0.269,0.342,1.122,-31.372,-28.687,-5.554
-0.230,0.337,1.082,-35.706,-27.771,-4.883
-0.230,0.312,1.044,-45.593,-27.649,-16.357
-0.153,0.294,0.999,-58.594,-25.208,-34.180
-0.126,0.239,0.975,-67.200,-19.897,-47.668
-0.135,0.228,0.981,-72.815,-16.357,-57.251
-0.163,0.280,1.005,-76.843,-15.747,-60.547
-0.197,0.358,1.000,-77.271,-18.738,-56.152
-0.215,0.440,0.970,-71.899,-22.217,-46.204
-0.263,0.474,0.930,-63.782,-25.452,-31.738
-0.291,0.440,0.902,-57.800,-28.748,-16.968
-0.249,0.385,0.871,-56.396,-30.212,-7.690
-0.199,0.348,0.813,-56.091,-28.687,-5.066
-0.172,0.310,0.754,-54.993,-24.292,-7.019
-0.175,0.284,0.707,-53.833,-18.433,-13.672
-0.200,0.271,0.697,-54.077,-12.268,-22.095
-0.236,0.253,0.689,-55.359,-8.362,-29.663
-0.262,0.249,0.691,-58.105,-7.446,-33.447
-0.263,0.295,0.695,-63.477,-9.705,-33.936
-0.280,0.346,0.735,-67.627,-13.245,-32.654
-0.344,0.396,0.757,-71.045,-18.799,-31.555
-0.369,0.430,0.752,-78.674,-26.611,-34.058
-0.361,0.445,0.725,-88.196,-30.273,-38.452
-0.330,0.432,0.679,-93.933,-28.625,-42.664
-0.318,0.408,0.652,-93.018,-22.278,-45.593
-0.314,0.372,0.635,-84.778,-13.916,-43.884
-0.327,0.328,0.650,-70.862,-6.531,-36.072
-0.351,0.317,0.664,-57.251,-2.075,-25.269
-0.347,0.347,0.678,-47.913,0.427,-14.648
-0.355,0.411,0.701,-40.955,4.272,-5.859
-0.391,0.486,0.722,-38.940,7.568,-1.099
-0.392,0.523,0.713,-43.945,8.606,0.671
-0.329,0.525,0.687,-55.542,9.766,-2.502
-0.299,0.512,0.674,-69.580,10.986,-12.146
-0.293,0.492,0.662,-78.430,9.583,-25.208
-0.292,0.453,0.664,-79.956,7.263,-33.630
-0.301,0.438,0.663,-76.721,6.409,-35.156
-0.310,0.482,0.647,-73.181,7.141,-29.907
-0.329,0.504,0.645,-68.359,9.277,-18.799
-0.306,0.531,0.653,-62.500,11.536,-8.789
-0.289,0.585,0.664,-57.678,13.977,-2.625
-0.310,0.638,0.676,-55.542,15.076,-0.122
-0.310,0.666,0.701,-55.664,13.184,-3.235
-0.340,0.624,0.654,-53.528,6.348,-8.545
-0.337,0.591,0.631,-56.091,0.122,-11.719
-0.362,0.622,0.628,-71.472,0.488,-12.390
-0.340,0.639,0.633,-76.416,0.244,-10.620
-0.299,0.629,0.611,-72.083,0.000,-8.118
-0.287,0.652,0.598,-68.481,0.916,-8.240
-0.299,0.686,0.608,-65.552,1.221,-10.132
-0.295,0.658,0.620,-58.105,-0.977,-10.559
-0.317,0.657,0.627,-49.561,-4.578,-8.911
-0.357,0.745,0.632,-49.194,-6.531,-4.333
-0.346,0.815,0.629,-52.734,-6.409,2.441
-0.313,0.882,0.595,-59.387,-5.005,15.991
-0.375,0.858,0.546,-64.636,-1.892,12.024
-0.347,0.822,0.491,-67.383,-0.183,-7.202
-0.328,0.773,0.495,-80.200,1.282,-16.602
-0.322,0.673,0.558,-85.632,-1.770,-24.170
-0.350,0.599,0.561,-77.942,-8.911,-29.724
-0.405,0.620,0.562,-70.740,-12.634,-29.053
-0.397,0.657,0.568,-65.369,-13.855,-23.254
-0.364,0.673,0.538,-57.068,-15.015,-18.311
-0.362,0.680,0.503,-48.401,-15.320,-19.226
-0.366,0.698,0.475,-43.335,-16.357,-22.644
-0.362,0.649,0.447,-41.748,-19.653,-24.414
-0.241,0.583,0.607,-41.382,-24.963,-27.893

-1.021,1.050,-1.264,-174.561,-28.809,-66.772
-1.369,1.142,-1.494,-200.439,-17.517,-59.570
-1.875,1.257,-1.705,-225.098,-6.775,-45.837
-2.283,1.307,-1.902,-249.390,2.258,-25.635
-2.548,1.202,-2.141,-273.499,14.832,-5.676
-2.851,1.074,-2.494,-282.837,30.884,14.587
-2.958,1.069,-2.808,-276.794,67.078,32.654
-2.887,1.192,-3.153,-261.719,117.493,45.410
-2.743,1.409,-3.407,-243.347,174.438,59.631
-2.416,1.664,-3.590,-223.389,234.802,72.449
-1.898,1.878,-3.580,-200.134,291.199,88.989
-1.426,2.099,-3.426,-178.589,345.703,113.770
-0.944,2.195,-3.242,-171.387,392.456,138.306
-0.467,2.251,-3.055,-177.856,421.265,158.142
-0.004,2.285,-2.936,-182.190,440.002,177.002
0.430,2.180,-2.854,-180.237,454.468,200.562
0.769,2.091,-2.824,-182.434,464.722,218.384
1.054,1.972,-2.838,-190.918,469.604,226.868
1.294,1.700,-2.790,-195.862,475.586,231.506
1.448,1.353,-2.468,-181.519,488.831,230.103
1.330,1.096,-2.033,-137.024,507.263,221.313
1.020,1.156,-1.591,-70.068,509.033,212.158
0.829,1.491,-1.300,0.427,477.112,207.336
0.916,1.794,-1.036,49.255,410.889,214.905
1.015,1.962,-0.787,54.688,330.017,228.271
1.133,1.976,-0.670,7.874,244.690,230.835
1.492,1.731,-0.654,-72.510,156.433,220.581
1.865,1.294,-0.624,-147.827,81.848,203.735
2.204,0.828,-0.668,-183.838,35.339,180.603
2.493,0.432,-0.728,-169.983,17.029,156.494
2.564,0.225,-0.720,-117.676,22.156,132.568
2.521,0.214,-0.597,-53.528,37.109,109.558
2.332,0.210,-0.288,-3.479,42.542,90.271
2.019,0.228,0.068,24.658,26.978,68.115
1.680,0.208,0.264,31.982,-7.751,44.189
1.495,0.160,0.283,24.536,-31.372,22.156
1.294,0.079,0.175,13.672,-23.926,-1.465
0.965,-0.001,0.129,10.620,-18.372,-28.320
0.699,-0.032,0.094,25.452,-29.663,-56.396
0.530,0.016,-0.022,51.025,-41.748,-81.543
0.323,0.074,-0.130,82.336,-51.025,-100.159
0.160,0.140,-0.230,117.920,-55.908,-112.671
0.002,0.220,-0.304,150.696,-60.730,-122.498
-0.168,0.282,-0.337,170.349,-65.002,-130.249
-0.334,0.334,-0.367,174.072,-70.557,-139.160
-0.469,0.396,-0.405,167.419,-81.177,-153.809
-0.525,0.508,-0.485,157.715,-95.398,-171.265
-0.548,0.613,-0.584,145.203,-108.948,-186.829
-0.567,0.674,-0.665,132.324,-119.141,-199.890
-0.589,0.714,-0.697,125.366,-128.052,-212.158
-0.623,0.752,-0.746,131.775,-142.029,-223.328
-0.551,0.810,-0.799,159.424,-156.372,-228.027
-0.440,0.980,-0.888,205.200,-162.231,-223.694
-0.320,1.225,-0.952,257.141,-152.893,-215.271
-0.286,1.401,-0.924,304.749,-124.695,-201.355
-0.357,1.470,-0.779,346.008,-86.121,-185.852
-0.475,1.438,-0.566,378.235,-45.410,-174.255
-0.560,1.365,-0.341,397.766,-13.550,-170.776
-0.615,1.328,-0.136,405.518,1.099,-178.101
-0.621,1.369,0.066,411.316,0.061,-188.049
-0.622,1.471,0.185,426.331,-8.911,-188.354
-0.567,1.516,0.220,449.219,-17.456,-174.927
-0.453,1.620,0.198,465.820,-22.278,-153.137
-0.410,1.660,0.213,470.764,-16.968,-128.052
-0.427,1.667,0.264,465.637,-1.343,-105.347
-0.476,1.618,0.366,459.045,24.658,-85.815
-0.557,1.525,0.513,453.003,52.124,-66.650
-0.639,1.397,0.657,447.388,72.510,-46.753
-0.696,1.246,0.795,443.848,84.167,-28.198
-0.712,1.104,0.917,442.871,86.609,-13.000
-0.721,0.991,0.983,443.909,86.304,-2.258
-0.694,0.896,0.989,442.688,87.097,3.906
-0.650,0.842,0.975,435.913,85.693,5.676
-0.618,0.795,0.957,422.485,82.336,4.944
-0.602,0.759,0.938,403.564,81.726,2.625
-0.601,0.757,0.951,379.272,84.839,-0.488
-0.600,0.770,0.969,347.534,88.867,-1.526
-0.608,0.772,0.977,302.002,91.858,0.549
-0.614,0.700,0.956,246.704,91.125,3.296
-0.596,0.572,0.953,191.528,88.867,2.625
-0.599,0.455,0.963,143.677,87.769,-3.601
-0.590,0.349,0.966,107.849,86.182,-14.282
-0.584,0.292,0.989,84.473,81.421,-26.367
-0.585,0.250,1.017,73.914,73.792,-36.682
-0.566,0.213,1.012,72.571,62.317,-44.006
-0.540,0.209,0.983,76.294,49.316,-49.011
-0.500,0.224,0.920,81.055,40.527,-52.612
-0.471,0.267,0.889,82.520,37.354,-56.458
-0.461,0.280,0.853,80.261,39.551,-59.082
-0.455,0.279,0.832,72.876,45.288,-59.875
-0.452,0.266,0.832,60.120,47.424,-60.242
-0.431,0.254,0.832,42.664,45.898,-61.096
-0.403,0.211,0.814,23.865,42.603,-62.805
-0.384,0.170,0.795,8.118,38.086,-65.552
-0.376,0.155,0.821,1.343,33.936,-69.336
-0.371,0.150,0.855,4.639,28.992,-72.510
-0.357,0.167,0.872,14.343,22.156,-73.242
-0.344,0.199,0.872,25.513,15.686,-73.303
-0.328,0.254,0.881,32.532,10.498,-73.303
-0.305,0.283,0.885,32.654,5.188,-72.510
-0.275,0.277,0.853,25.269,1.404,-72.388
-0.255,0.278,0.804,11.841,1.038,-74.707
-0.235,0.290,0.796,-2.930,2.136,-78.003
-0.227,0.302,0.807,-17.273,4.089,-81.116
-0.232,0.300,0.823,-29.541,6.592,-81.787
-0.240,0.270,0.846,-35.522,6.836,-79.346
-0.231,0.246,0.880,-33.447,5.676,-76.172
-0.226,0.245,0.911,-24.109,4.578,-73.853
-0.206,0.261,0.949,-11.475,2.686,-69.946
-0.202,0.299,0.991,0.427,-0.183,-63.660
-0.187,0.321,1.013,8.545,-3.601,-55.420
-0.163,0.318,1.027,11.780,-7.202,-47.180
-0.125,0.300,1.023,9.766,-8.301,-43.030
-0.112,0.276,0.987,2.014,-4.761,-44.189
-0.118,0.282,0.962,-10.742,1.343,-48.584
-0.128,0.285,0.957,-26.550,5.615,-53.528
-0.123,0.293,0.964,-41.199,7.141,-56.763
-0.112,0.308,0.992,-50.598,7.019,-57.800
-0.105,0.298,1.001,-52.612,5.859,-54.932

-1.033,1.628,-0.476,-599.792,-71.533,-162.598
-1.093,1.711,-0.875,-598.450,-68.054,-153.503
-1.209,1.881,-1.250,-539.551,-40.344,-134.705
-1.304,2.172,-1.532,-429.138,1.770,-92.834
-1.471,2.419,-1.702,-313.110,51.270,-35.583
-1.636,2.591,-1.757,-228.638,96.436,19.470
-1.758,2.776,-1.758,-188.904,129.517,63.232
-1.857,2.978,-1.783,-194.397,151.062,90.759
-1.747,3.123,-1.884,-227.722,164.001,108.521
-1.572,3.239,-2.056,-258.545,179.138,131.775
-1.546,3.093,-2.242,-275.330,198.303,164.001
-0.878,3.267,-2.349,-296.936,207.275,189.148
-0.521,3.017,-2.788,-269.836,239.746,216.370
-0.067,2.785,-2.823,-199.646,294.617,261.230
0.267,2.652,-2.646,-129.456,353.088,290.039
0.543,2.665,-2.440,-71.655,396.851,311.951
0.807,2.718,-2.215,-30.945,418.396,339.355
0.984,2.746,-1.956,-21.057,420.532,364.319
1.132,2.632,-1.650,-41.992,405.640,376.221
1.198,2.345,-1.301,-74.585,379.761,378.296
1.249,2.159,-1.092,-89.172,351.868,370.911
1.348,2.121,-1.048,-72.937,327.576,361.084
1.456,2.168,-1.095,-36.255,300.415,352.051
1.564,2.246,-1.116,0.427,274.841,340.149
1.695,2.387,-1.012,24.170,251.892,330.872
1.821,2.359,-0.759,21.851,230.408,325.928
1.960,2.115,-0.440,-8.484,207.520,314.270
2.081,1.717,-0.166,-51.392,178.284,294.861
2.210,1.289,0.011,-91.492,141.174,269.653
2.426,0.874,0.080,-118.347,105.286,240.662
2.694,0.444,0.102,-132.019,74.280,208.740
2.816,0.042,0.166,-133.179,54.260,171.265
2.791,-0.242,0.261,-117.493,46.814,126.892
2.673,-0.483,0.414,-87.097,38.696,85.022
2.428,-0.597,0.527,-48.035,20.203,47.302
2.222,-0.547,0.497,-10.803,10.681,21.790
2.066,-0.456,0.282,21.484,28.992,8.728
1.733,-0.397,0.231,44.189,35.706,-14.160
1.437,-0.289,0.216,51.880,19.043,-52.185
1.202,-0.119,0.164,43.762,-0.916,-96.069
0.978,0.029,0.109,25.879,-19.592,-130.859
0.768,0.116,0.034,7.141,-36.011,-158.203
0.573,0.177,-0.068,-5.066,-50.354,-183.167
0.404,0.261,-0.193,-3.296,-69.397,-203.247
0.291,0.329,-0.329,17.517,-85.022,-215.332
0.135,0.361,-0.439,48.096,-93.811,-223.816
-0.002,0.381,-0.506,82.397,-99.365,-234.924
-0.127,0.450,-0.523,117.798,-102.661,-251.892
-0.244,0.589,-0.535,159.241,-103.760,-273.804
-0.287,0.851,-0.538,212.585,-104.919,-294.922
-0.292,1.156,-0.546,277.039,-106.018,-311.401
-0.249,1.445,-0.562,349.731,-101.990,-320.374
-0.138,1.791,-0.548,426.758,-88.440,-325.439
-0.017,2.111,-0.409,506.104,-59.082,-324.707
0.017,2.327,-0.098,584.106,-13.855,-314.270
-0.033,2.471,0.340,661.865,38.940,-290.405
-0.131,2.568,0.836,734.985,92.224,-247.559
-0.317,2.526,1.295,786.804,143.555,-184.326
-0.510,2.305,1.678,793.457,188.477,-117.981
-0.709,2.045,1.967,747.498,211.243,-65.369
-0.806,1.714,2.081,648.193,215.637,-42.542
-0.903,1.382,2.067,509.949,197.327,-54.993
-0.882,1.142,1.978,363.037,156.494,-91.614
-0.839,0.952,1.830,234.314,111.572,-134.277
-0.707,0.917,1.560,135.742,77.148,-170.593
-0.643,0.793,1.408,87.341,61.646,-184.265
-0.595,0.738,1.310,95.276,62.073,-182.190
-0.604,0.781,1.269,144.165,71.045,-150.696
-0.603,0.827,1.279,201.599,88.196,-105.957
-0.641,0.798,1.307,234.985,98.511,-65.491
-0.671,0.703,1.313,232.605,100.220,-40.100
-0.685,0.583,1.296,200.378,95.276,-32.288
-0.665,0.474,1.262,152.222,86.487,-38.940
-0.644,0.384,1.203,108.276,78.064,-53.406
-0.623,0.343,1.162,83.191,75.256,-66.589
-0.609,0.331,1.146,78.186,74.463,-71.228
-0.607,0.315,1.125,82.642,71.289,-66.833
-0.613,0.266,1.115,88.928,65.491,-58.960
-0.636,0.228,1.109,93.811,56.580,-54.138
-0.629,0.219,1.078,93.445,46.997,-54.565
-0.616,0.261,1.037,86.243,42.053,-58.472
-0.603,0.311,1.017,72.754,38.635,-62.866
-0.596,0.337,1.000,56.763,34.729,-65.369
-0.568,0.337,0.989,41.626,31.982,-66.040
-0.556,0.324,0.992,30.518,30.029,-65.491
-0.552,0.307,1.005,24.475,29.114,-63.354
-0.547,0.266,1.041,23.804,25.085,-59.021
-0.533,0.218,1.073,27.222,15.137,-55.603
-0.510,0.200,1.075,30.640,2.319,-56.702
-0.462,0.226,1.039,31.677,-10.986,-61.829
-0.417,0.291,0.997,31.555,-22.278,-66.956
-0.379,0.332,0.955,31.555,-28.381,-66.650
-0.344,0.349,0.916,31.433,-30.090,-61.646
-0.309,0.339,0.892,30.518,-29.175,-54.749
-0.279,0.315,0.892,28.015,-25.574,-47.913
-0.254,0.268,0.899,23.621,-21.912,-42.908
-0.228,0.232,0.916,18.005,-19.531,-41.138
-0.205,0.222,0.931,14.221,-20.569,-42.236
-0.162,0.226,0.927,13.672,-25.085,-43.762
-0.134,0.236,0.909,13.184,-30.518,-44.495
-0.107,0.237,0.886,12.085,-34.790,-44.189
-0.083,0.229,0.864,9.460,-36.987,-42.664
-0.061,0.217,0.851,5.859,-37.231,-40.344
-0.038,0.200,0.850,3.784,-34.668,-36.804
-0.017,0.190,0.859,4.272,-28.992,-31.921
-0.002,0.190,0.869,5.371,-21.790,-25.330
-0.007,0.188,0.881,5.920,-16.235,-17.273
-0.010,0.160,0.889,7.202,-12.451,-8.850
-0.014,0.122,0.889,7.690,-9.827,-2.808
-0.019,0.090,0.892,7.263,-7.507,0.488
-0.020,0.057,0.901,5.859,-4.578,1.526
-0.026,0.012,0.927,3.052,-1.953,0.854
-0.021,-0.023,0.961,1.099,-1.160,-1.099
-0.016,-0.045,0.983,2.502,-1.282,-2.563
-0.006,-0.043,1.000,7.874,-0.427,-2.991
-0.011,-0.026,1.007,14.038,1.526,-3.052
-0.017,-0.005,1.003,17.395,2.869,-3.723
-0.030,0.005,1.010,18.250,2.380,-4.883
-0.028,0.024,1.029,15.686,0.916,-6.958
