aX,aY,aZ,gX,gY,gZ
-1.017,0.789,0.817,37.170,14.771,44.739
-1.135,0.815,0.841,57.007,14.282,56.763
-1.283,0.848,0.817,87.524,10.864,73.669
-1.478,0.893,0.738,130.920,6.897,93.811
-1.745,1.009,0.593,187.256,3.601,116.577
-2.014,1.178,0.469,245.850,7.324,140.930
-2.183,1.338,0.453,292.419,25.269,163.391
-2.261,1.364,0.510,319.275,56.030,186.035
-2.242,1.286,0.724,327.759,89.417,208.984
-2.084,1.051,1.070,333.374,114.502,230.713
-1.936,0.796,1.401,346.313,121.826,250.183
-1.962,0.576,1.639,362.915,109.253,264.465
-2.138,0.436,1.628,368.774,74.890,265.625
-2.258,0.466,1.343,358.032,18.127,251.953
-2.370,0.561,0.911,346.069,-40.344,240.662
-2.521,0.628,0.425,352.844,-85.327,244.873
-2.672,0.571,-0.185,378.052,-117.676,260.498
-2.640,0.512,-0.881,402.466,-140.869,266.113
-2.478,0.468,-1.604,417.786,-144.775,256.531
-2.343,0.370,-2.206,428.955,-119.385,245.850
-2.156,0.266,-2.536,437.683,-70.984,237.610
-1.802,0.196,-2.472,444.214,-15.686,234.253
-1.335,-0.053,-2.067,443.726,34.058,246.887
-0.698,-0.364,-1.534,412.109,62.988,264.954
0.229,-0.645,-1.198,342.102,59.570,283.569
1.812,-1.142,-1.164,263.855,38.757,328.369
3.702,-1.596,-1.220,179.382,44.861,389.893
4.000,-2.161,-1.112,80.078,110.657,408.325
4.000,-3.146,-0.375,-34.790,214.294,349.182
4.000,-3.385,0.671,-152.283,325.012,137.085
4.000,-2.146,1.794,-215.576,403.320,-148.499
4.000,-0.138,2.650,-130.005,440.735,-319.214
4.000,2.040,3.086,75.195,429.016,-341.125
3.510,3.380,3.437,272.400,349.182,-265.808
2.349,3.746,3.645,339.478,237.732,-159.790
1.594,3.320,3.428,227.356,102.173,-76.233
1.610,2.490,2.570,-8.118,-78.491,-22.034
2.529,1.218,1.417,-249.756,-277.649,27.649
3.625,-0.322,-0.007,-414.124,-417.725,77.942
4.000,-1.742,-1.245,-478.394,-450.439,101.135
3.951,-2.498,-1.856,-401.978,-392.090,95.459
3.135,-2.496,-1.836,-197.327,-302.795,78.247
2.291,-2.092,-1.397,34.485,-236.389,63.232
1.640,-1.600,-0.898,178.101,-202.515,38.635
1.194,-1.154,-0.560,175.171,-187.866,0.183
1.016,-0.870,-0.381,48.767,-182.373,-45.715
0.896,-0.872,-0.401,-128.174,-170.898,-78.979
0.803,-1.117,-0.440,-284.302,-146.667,-93.140
0.603,-1.345,-0.416,-379.639,-115.173,-98.328
0.420,-1.472,-0.261,-404.297,-78.552,-110.779
0.126,-1.386,-0.078,-372.375,-45.349,-134.583
-0.147,-1.053,0.147,-303.833,-25.330,-160.889
-0.462,-0.597,0.409,-216.431,-21.301,-175.781
-0.811,-0.161,0.630,-139.771,-28.015,-166.077
-1.002,0.090,0.810,-105.957,-46.875,-136.353
-0.901,0.069,0.888,-136.230,-73.242,-107.971
-0.798,-0.032,0.842,-227.905,-92.590,-97.290
-0.772,-0.178,0.737,-344.482,-92.712,-101.196
-0.761,-0.296,0.577,-449.951,-77.271,-114.319
-0.817,-0.308,0.525,-524.902,-52.734,-130.981
-1.159,-0.227,0.583,-558.838,-20.386,-143.616
-1.397,-0.175,0.812,-566.467,-3.540,-152.283
-1.453,-0.092,1.060,-562.561,-28.870,-164.246
-1.423,-0.020,1.225,-539.856,-78.552,-181.458
-1.269,-0.037,1.184,-496.643,-137.390,-194.641
-0.978,-0.092,0.847,-439.575,-184.143,-203.369
-0.759,-0.091,0.372,-375.610,-196.533,-217.651
-0.757,0.102,0.021,-314.575,-172.852,-242.371
-0.813,0.427,-0.117,-265.442,-124.939,-271.973
-0.899,0.813,0.013,-249.939,-76.721,-291.016
-1.031,1.005,0.255,-268.066,-43.457,-290.894
-1.120,1.006,0.471,-305.725,-32.104,-277.893
-1.196,0.929,0.615,-341.675,-41.626,-264.954
-1.217,0.815,0.700,-355.164,-61.768,-254.211
-1.193,0.751,0.717,-330.200,-90.942,-242.432
-1.005,0.764,0.621,-250.854,-119.873,-218.384
-0.905,0.888,0.393,-130.554,-127.869,-176.208
-0.882,1.100,0.238,-10.193,-119.019,-121.155
-0.891,1.259,0.212,72.388,-107.056,-75.012
-0.905,1.347,0.247,96.619,-93.262,-45.166
-0.935,1.368,0.286,70.496,-82.947,-37.354
-0.955,1.329,0.294,15.808,-77.393,-45.166
-0.963,1.250,0.272,-40.344,-76.233,-58.533
-0.938,1.169,0.227,-80.811,-77.209,-70.496
-0.921,1.116,0.187,-102.173,-80.322,-75.195
-0.746,1.039,0.114,-108.154,-82.520,-69.153
-0.664,1.001,0.011,-96.069,-81.116,-55.847
-0.607,1.041,-0.072,-59.082,-68.420,-36.255
-0.586,1.105,-0.055,-11.902,-47.424,-9.705
-0.599,1.106,0.031,24.292,-28.748,19.348
-0.635,1.008,0.173,43.152,-14.954,44.189
-0.692,0.852,0.329,51.392,-7.874,59.265
-0.721,0.716,0.461,56.519,-10.132,64.819
-0.710,0.640,0.505,56.030,-20.935,61.401
-0.661,0.607,0.488,46.204,-32.532,50.659
-0.611,0.609,0.441,27.344,-40.344,34.668
-0.539,0.645,0.367,5.493,-40.710,16.602
-0.523,0.733,0.339,-13.794,-34.607,-2.319
-0.485,0.820,0.340,-30.029,-26.367,-13.977
-0.491,0.861,0.368,-45.166,-20.264,-16.968
-0.504,0.832,0.400,-55.664,-18.433,-14.709
-0.508,0.769,0.407,-60.181,-21.912,-10.803
-0.514,0.717,0.389,-56.946,-27.527,-7.446
-0.502,0.700,0.362,-47.913,-32.837,-5.920
-0.485,0.706,0.310,-37.354,-36.255,-5.310
-0.462,0.721,0.255,-28.137,-35.461,-5.493
-0.476,0.743,0.229,-19.043,-29.236,-6.226
-0.479,0.770,0.239,-10.803,-20.813,-7.263
-0.492,0.805,0.286,-5.798,-13.794,-7.751
-0.510,0.825,0.344,-4.761,-10.071,-7.812
-0.522,0.829,0.393,-7.141,-10.925,-7.019
-0.541,0.817,0.410,-11.353,-15.442,-6.409
-0.540,0.802,0.396,-14.709,-21.667,-6.409
-0.522,0.797,0.344,-17.395,-26.550,-7.019
-0.496,0.798,0.283,-17.883,-27.771,-7.202
-0.479,0.806,0.236,-13.367,-24.780,-5.554
-0.464,0.802,0.204,-4.333,-17.883,-2.319
-0.460,0.812,0.215,6.226,-10.376,1.892
-0.456,0.804,0.255,15.015,-2.625,4.028

-1.701,1.146,-0.008,299.744,57.251,98.572
-1.843,1.225,-0.100,359.619,69.275,141.907
-1.983,1.256,-0.090,404.358,88.867,177.124
-2.121,1.270,0.029,437.378,111.938,199.402
-2.222,1.218,0.198,458.008,129.395,211.975
-2.416,1.173,0.348,467.529,141.846,215.942
-2.492,1.158,0.497,469.055,147.583,210.510
-2.441,1.218,0.855,473.083,144.531,199.524
-2.474,1.300,1.132,493.164,129.761,201.477
-2.345,1.380,1.268,534.546,101.013,227.661
-2.356,1.372,1.505,577.759,59.814,265.076
-2.520,1.253,1.630,584.961,4.028,303.040
-2.604,1.045,1.356,532.043,-61.890,309.265
-2.673,0.862,0.860,427.917,-122.925,273.804
-2.678,0.778,0.135,323.975,-166.809,222.168
-2.659,0.751,-0.647,275.574,-187.500,190.857
-2.458,0.604,-1.290,309.143,-180.664,195.984
-2.116,0.350,-1.646,393.066,-144.043,224.365
-1.660,-0.039,-1.774,458.374,-88.013,239.685
-1.138,-0.358,-1.836,458.069,-24.597,216.553
-0.654,-0.453,-1.623,400.269,25.574,166.687
0.238,-0.642,-1.330,322.021,47.852,138.062
1.771,-0.999,-1.040,253.662,45.410,142.944
3.368,-1.057,-0.822,214.661,42.053,162.842
4.000,-1.090,-0.627,210.205,71.594,198.608
4.000,-1.027,-0.518,202.087,138.550,244.995
4.000,-1.306,0.128,149.475,225.891,250.854
4.000,-1.756,1.398,63.782,321.411,214.355
4.000,-1.759,2.609,-0.549,424.683,132.751
4.000,-1.301,3.608,-7.751,468.445,55.786
3.191,-0.650,4.000,40.527,413.635,20.874
2.001,-0.051,4.000,109.436,288.269,8.362
1.477,0.312,3.884,138.794,116.272,-7.019
1.652,0.362,2.938,105.713,-74.280,-28.992
2.376,0.164,1.590,26.917,-244.507,-49.377
3.134,-0.104,0.152,-59.326,-375.671,-56.946
3.739,-0.445,-0.983,-112.000,-436.890,-51.697
3.846,-0.879,-1.635,-120.361,-406.555,-39.307
3.360,-1.254,-1.755,-106.995,-324.402,-39.307
2.671,-1.282,-1.554,-90.637,-243.164,-61.584
2.032,-1.143,-1.269,-78.552,-187.012,-88.074
1.534,-0.944,-0.981,-80.688,-155.823,-105.652
1.086,-0.735,-0.726,-110.046,-143.372,-111.084
0.789,-0.607,-0.613,-169.800,-136.475,-107.300
0.658,-0.529,-0.503,-254.211,-125.793,-102.234
0.499,-0.533,-0.405,-346.436,-109.009,-95.337
0.335,-0.592,-0.269,-433.655,-79.895,-88.379
0.143,-0.589,-0.061,-501.648,-45.959,-86.731
-0.113,-0.507,0.154,-538.330,-17.334,-87.708
-0.381,-0.431,0.401,-549.561,2.686,-86.853
-0.760,-0.355,0.613,-542.542,9.277,-84.595
-1.131,-0.318,0.747,-531.555,1.404,-78.857
-1.271,-0.359,0.879,-531.738,-19.104,-77.271
-1.253,-0.416,0.938,-545.410,-50.476,-85.449
-1.167,-0.430,0.895,-562.500,-79.712,-98.083
-1.186,-0.309,0.779,-569.336,-98.938,-108.704
-1.232,-0.167,0.663,-559.998,-103.821,-115.173
-1.247,-0.081,0.634,-543.640,-105.774,-114.258
-1.226,-0.017,0.690,-526.123,-117.737,-110.352
-1.324,-0.011,0.682,-512.085,-135.010,-109.924
-1.330,-0.053,0.662,-509.766,-156.433,-112.488
-1.264,-0.078,0.600,-508.850,-183.899,-126.282
-1.248,-0.043,0.504,-494.934,-208.984,-146.362
-1.199,0.058,0.361,-463.318,-226.807,-163.452
-1.122,0.269,0.251,-419.617,-237.854,-177.551
-1.034,0.489,0.120,-371.338,-241.272,-189.758
-0.956,0.670,-0.117,-324.402,-231.201,-189.697
-0.915,0.830,-0.267,-265.808,-221.375,-175.171
-0.940,0.917,-0.315,-193.481,-210.632,-155.090
-0.989,0.963,-0.261,-122.498,-195.618,-133.057
-1.016,0.933,-0.207,-65.674,-184.143,-111.572
-1.017,0.901,-0.142,-32.043,-176.147,-98.816
-1.051,0.907,-0.077,-18.982,-168.457,-96.191
-1.128,0.892,-0.000,-21.179,-164.673,-98.938
-1.039,0.875,0.004,-30.945,-168.396,-99.304
-0.981,0.873,-0.001,-36.194,-171.143,-105.347
-0.896,0.904,-0.143,-34.790,-160.645,-116.699
-0.814,1.031,-0.278,-30.334,-142.273,-121.704
-0.784,1.181,-0.349,-20.630,-120.300,-116.943
-0.758,1.301,-0.329,-5.188,-95.215,-100.647
-0.789,1.352,-0.239,14.954,-72.937,-73.669
-0.832,1.364,-0.121,36.804,-56.396,-43.579
-0.877,1.304,-0.033,53.589,-49.133,-14.954
-0.905,1.193,0.011,59.326,-50.110,5.920
-0.909,1.052,0.009,53.345,-56.519,16.235
-0.874,0.946,-0.003,39.978,-64.514,15.625
-0.805,0.875,-0.039,25.085,-70.313,4.578
-0.715,0.865,-0.126,11.475,-68.604,-10.742
-0.657,0.907,-0.188,1.587,-57.739,-23.254
-0.605,0.970,-0.173,-5.249,-41.931,-28.442
-0.578,1.014,-0.089,-7.935,-25.208,-27.283
-0.593,1.030,0.020,-7.690,-14.587,-19.287
-0.594,1.007,0.115,-4.761,-15.259,-6.104
-0.593,0.947,0.144,-1.465,-23.743,7.019
-0.579,0.871,0.127,3.540,-33.264,17.029
-0.549,0.801,0.094,7.690,-40.894,20.142
-0.516,0.726,0.071,10.498,-44.983,18.982
-0.500,0.677,0.058,14.954,-44.250,14.099
-0.494,0.665,0.049,22.095,-39.001,6.531
-0.458,0.713,0.033,27.832,-30.640,-1.221
-0.428,0.807,0.042,26.306,-20.081,-5.676
-0.442,0.900,0.101,17.212,-10.132,-6.348
-0.469,0.908,0.157,4.578,-6.531,-3.479
-0.494,0.890,0.188,-4.517,-10.742,0.732
-0.503,0.841,0.173,-6.836,-18.311,3.418
-0.500,0.793,0.141,-4.456,-25.635,5.066
-0.488,0.758,0.099,1.465,-29.236,5.066
-0.475,0.750,0.069,8.057,-28.198,2.197
-0.471,0.750,0.053,13.489,-23.254,-1.343
-0.471,0.788,0.058,16.907,-16.174,-5.371
-0.467,0.857,0.084,15.808,-9.338,-9.094
-0.472,0.930,0.122,9.216,-5.493,-9.888
-0.490,0.959,0.151,0.549,-4.944,-7.263
-0.500,0.935,0.158,-5.371,-7.507,-1.831
-0.503,0.894,0.151,-5.310,-11.841,3.723
-0.498,0.857,0.135,-0.244,-14.832,7.385
-0.482,0.830,0.121,6.653,-14.771,9.033
-0.475,0.810,0.107,11.597,-13.123,8.545
-0.454,0.800,0.090,14.587,-8.545,5.859

-1.697,0.853,-0.232,242.004,96.497,146.240
-1.923,0.875,-0.255,275.635,104.919,154.663
-2.161,0.913,-0.315,305.542,109.741,162.964
-2.394,1.010,-0.341,334.778,116.333,171.631
-2.571,1.217,-0.247,363.892,123.047,182.373
-2.779,1.403,-0.042,388.794,127.197,200.623
-2.962,1.471,0.189,406.677,118.042,230.530
-2.953,1.355,0.379,429.504,93.933,261.963
-2.876,1.205,0.469,470.215,65.247,281.738
-2.812,1.070,0.480,510.986,40.283,289.612
-2.707,0.923,0.473,533.203,16.479,285.583
-2.612,0.779,0.283,539.429,-0.549,268.250
-2.581,0.810,-0.003,534.058,-3.174,237.610
-2.494,0.876,-0.244,517.578,4.272,212.402
-2.368,0.828,-0.374,500.549,15.808,201.965
-2.235,0.625,-0.396,485.962,30.701,192.749
-1.984,0.418,-0.407,466.980,45.776,166.870
-1.733,0.366,-0.465,438.599,58.777,128.296
-1.412,0.442,-0.559,417.236,67.932,98.999
-0.983,0.448,-0.599,418.213,78.674,96.741
-0.470,0.346,-0.515,421.021,89.355,123.169
0.120,0.094,-0.438,394.653,81.970,158.691
1.119,-0.460,-0.536,319.580,50.049,194.214
2.552,-1.125,-0.872,221.985,13.245,201.477
3.872,-1.567,-1.215,138.123,18.982,167.236
4.000,-1.605,-1.520,104.248,90.698,127.136
4.000,-1.591,-1.221,138.977,193.542,117.798
4.000,-1.642,-0.274,177.185,292.908,146.484
4.000,-1.587,0.674,166.748,364.258,167.114
4.000,-1.442,1.490,104.309,400.024,157.288
3.899,-1.153,2.296,25.330,395.264,133.789
2.814,-0.851,2.908,-20.203,344.666,103.821
1.845,-0.556,3.093,-11.108,247.131,66.772
1.170,-0.475,2.842,36.377,117.188,38.147
1.103,-0.494,2.170,75.806,-23.926,21.362
1.446,-0.607,1.276,79.163,-151.978,5.249
1.857,-0.672,0.371,50.720,-245.422,-8.667
2.205,-0.694,-0.255,19.287,-292.053,-18.860
2.371,-0.774,-0.573,4.761,-296.570,-18.799
2.287,-0.883,-0.676,-6.104,-276.550,-16.113
2.134,-0.982,-0.651,-32.349,-252.136,-22.095
1.954,-1.063,-0.590,-72.083,-228.271,-34.485
1.778,-1.171,-0.466,-113.770,-205.383,-49.255
1.576,-1.253,-0.312,-150.452,-190.186,-64.270
1.445,-1.287,-0.160,-180.481,-182.434,-80.017
1.330,-1.233,-0.010,-205.933,-178.772,-94.849
1.174,-1.091,0.116,-229.919,-174.927,-107.422
1.030,-0.900,0.190,-258.179,-170.410,-116.028
0.895,-0.667,0.259,-294.800,-162.048,-117.920
0.646,-0.451,0.305,-342.529,-146.606,-115.173
0.404,-0.298,0.389,-405.762,-126.831,-109.924
0.189,-0.228,0.500,-480.652,-108.887,-105.164
-0.004,-0.269,0.585,-555.847,-91.187,-104.797
-0.256,-0.327,0.597,-616.699,-72.876,-109.558
-0.417,-0.275,0.661,-652.893,-57.129,-117.432
-0.702,-0.088,0.805,-667.847,-48.523,-119.873
-0.978,-0.001,0.914,-672.729,-50.598,-109.375
-1.191,0.071,0.938,-663.818,-70.007,-101.501
-1.296,0.015,0.733,-626.831,-99.304,-97.778
-1.359,0.072,0.440,-555.115,-124.878,-90.881
-1.540,0.204,0.180,-457.764,-141.174,-72.998
-1.609,0.315,0.073,-355.408,-145.569,-41.321
-1.591,0.398,0.108,-271.973,-151.794,-5.188
-1.652,0.364,0.185,-220.154,-162.048,24.902
-1.619,0.224,0.214,-199.890,-169.495,44.495
-1.658,0.005,0.125,-203.186,-170.532,42.603
-1.669,-0.223,0.025,-217.834,-163.025,14.587
-1.641,-0.359,-0.146,-237.671,-142.334,-35.034
-1.714,-0.288,-0.221,-258.484,-113.586,-96.802
-1.673,-0.060,-0.160,-269.592,-92.651,-154.602
-1.578,0.279,-0.004,-270.752,-87.219,-194.153
-1.511,0.550,0.121,-259.216,-98.083,-202.332
-1.449,0.644,0.152,-226.440,-115.173,-182.739
-1.408,0.648,0.124,-173.950,-124.878,-149.963
-1.344,0.615,0.072,-117.554,-126.648,-116.333
-1.231,0.548,-0.005,-70.862,-119.568,-89.417
-1.149,0.496,-0.054,-45.166,-101.807,-76.416
-1.187,0.427,-0.072,-42.419,-78.918,-80.811
-1.189,0.419,0.003,-53.162,-62.988,-94.482
-1.189,0.487,0.092,-63.477,-60.547,-110.901
-1.144,0.601,0.118,-67.322,-68.115,-119.690
-1.064,0.739,0.042,-64.026,-80.017,-115.356
-0.970,0.805,-0.078,-56.946,-85.632,-97.168
-0.919,0.792,-0.147,-47.913,-79.956,-72.266
-0.905,0.759,-0.165,-35.034,-68.176,-49.988
-0.913,0.738,-0.132,-18.799,-56.641,-34.302
-0.895,0.737,-0.083,-0.671,-46.997,-25.330
-0.887,0.706,-0.071,13.733,-40.405,-20.020
-0.863,0.718,-0.045,23.315,-35.400,-17.639
-0.840,0.774,-0.013,28.809,-30.640,-19.287
-0.811,0.872,0.031,28.442,-26.367,-21.729
-0.806,0.948,0.063,23.682,-23.987,-19.592
-0.795,0.988,0.069,16.968,-24.170,-14.099
-0.771,0.981,0.074,9.460,-25.635,-9.338
-0.752,0.948,0.073,2.502,-26.672,-5.310
-0.734,0.898,0.069,-0.549,-27.649,-2.319
-0.716,0.833,0.060,0.366,-29.114,0.488
-0.692,0.760,0.060,5.676,-29.846,2.136
-0.668,0.720,0.053,13.123,-28.320,2.014
-0.637,0.744,0.072,19.592,-24.719,0.366
-0.624,0.765,0.100,22.644,-18.188,-1.526
-0.627,0.784,0.147,21.484,-12.207,-0.610
-0.638,0.780,0.169,17.029,-9.644,2.197
-0.658,0.762,0.173,10.986,-10.559,4.944
-0.660,0.731,0.147,6.470,-12.878,5.737
-0.666,0.711,0.122,3.723,-14.587,4.395
-0.661,0.696,0.102,4.395,-16.479,2.502
-0.646,0.689,0.087,9.216,-18.005,0.061
-0.625,0.703,0.083,17.029,-17.517,-2.502
-0.602,0.740,0.088,23.499,-14.343,-3.662
-0.580,0.778,0.093,25.696,-9.521,-2.808
-0.577,0.779,0.099,23.743,-4.761,0.427
-0.593,0.770,0.110,18.066,-1.221,2.014
-0.603,0.768,0.119,10.681,0.610,1.038
-0.610,0.779,0.121,3.967,0.305,-1.282
-0.608,0.791,0.111,-0.427,-1.099,-3.479
-0.599,0.787,0.096,-0.610,-2.258,-4.089
-0.597,0.765,0.089,2.502,-2.258,-3.967
-0.591,0.740,0.090,7.751,-1.038,-4.639

-1.634,0.704,-0.410,257.751,119.507,96.619
-1.837,0.711,-0.496,298.828,132.996,120.728
-2.078,0.767,-0.558,341.919,147.949,145.996
-2.275,0.869,-0.529,379.333,162.598,169.128
-2.433,0.949,-0.435,409.241,175.110,191.223
-2.514,1.006,-0.252,433.228,183.899,213.318
-2.512,0.945,-0.031,453.125,186.340,234.802
-2.439,0.770,0.191,474.670,184.204,252.563
-2.379,0.555,0.520,502.686,181.091,262.512
-2.507,0.352,0.829,535.339,168.823,267.212
-2.602,0.171,1.011,556.091,140.442,264.832
-2.681,0.058,0.929,543.518,102.905,241.882
-2.776,-0.003,0.695,488.770,58.777,196.350
-2.881,0.042,0.418,413.635,10.864,145.020
-2.880,-0.000,0.051,358.582,-28.259,112.915
-2.813,-0.106,-0.370,341.797,-52.673,100.708
-2.556,-0.246,-0.771,369.812,-60.181,97.168
-2.183,-0.408,-1.176,431.824,-46.448,96.680
-1.672,-0.425,-1.529,500.549,-5.676,92.346
-1.048,-0.367,-1.690,541.504,48.401,82.642
-0.308,-0.333,-1.470,532.654,114.014,87.952
0.381,-0.468,-0.948,467.529,163.025,105.591
1.226,-0.793,-0.486,352.966,168.884,127.991
2.325,-1.340,-0.223,240.173,132.568,148.682
3.747,-1.962,-0.400,177.734,89.844,172.729
4.000,-2.288,-0.818,174.683,98.450,175.476
4.000,-2.395,-0.793,212.158,175.598,151.367
4.000,-2.396,-0.055,223.145,288.696,127.808
4.000,-2.205,1.007,180.969,404.968,102.722
4.000,-1.765,2.061,110.779,489.685,55.969
3.997,-1.034,2.937,60.059,504.517,-6.470
2.944,-0.243,3.559,61.157,447.815,-49.744
1.834,0.308,3.733,109.924,325.134,-55.481
1.018,0.556,3.391,151.062,156.677,-36.072
0.990,0.428,2.529,138.062,-29.846,-19.104
1.562,0.030,1.268,62.683,-192.932,-22.400
2.208,-0.397,-0.123,-26.672,-302.917,-37.292
2.662,-0.711,-1.190,-75.684,-347.778,-44.800
2.859,-1.026,-1.739,-55.664,-322.388,-40.833
2.576,-1.125,-1.798,-14.404,-250.549,-38.513
2.027,-0.971,-1.566,-8.850,-176.025,-46.753
1.501,-0.803,-1.241,-48.645,-125.610,-56.152
1.120,-0.777,-0.962,-114.441,-102.478,-52.429
0.911,-0.909,-0.789,-185.547,-97.229,-38.330
0.874,-1.090,-0.669,-248.047,-97.046,-26.489
0.914,-1.237,-0.463,-289.001,-95.642,-19.409
0.864,-1.325,-0.234,-305.664,-88.318,-16.479
0.716,-1.292,-0.056,-311.401,-77.576,-25.269
0.555,-1.190,0.107,-316.956,-71.594,-42.297
0.462,-1.064,0.294,-322.876,-69.153,-60.303
0.273,-0.878,0.468,-327.271,-70.374,-74.097
0.031,-0.661,0.578,-333.252,-77.515,-79.163
-0.063,-0.493,0.658,-347.595,-90.454,-77.332
-0.094,-0.388,0.707,-374.695,-104.187,-70.435
-0.198,-0.320,0.705,-420.288,-108.521,-64.575
-0.375,-0.298,0.704,-487.793,-99.609,-68.420
-0.616,-0.259,0.729,-567.566,-85.083,-83.801
-0.804,-0.133,0.735,-640.381,-71.350,-104.248
-0.964,0.124,0.804,-688.843,-55.603,-120.789
-1.010,0.275,0.856,-703.064,-44.128,-122.620
-1.130,0.312,0.870,-689.514,-38.635,-115.784
-1.091,0.293,0.799,-665.161,-34.607,-97.717
-1.107,0.319,0.729,-633.118,-37.048,-78.979
-1.224,0.377,0.702,-597.534,-45.105,-79.407
-1.460,0.443,0.667,-567.200,-55.237,-87.158
-1.458,0.510,0.671,-550.842,-72.815,-92.224
-1.486,0.527,0.592,-540.894,-99.548,-101.379
-1.428,0.477,0.437,-527.039,-119.141,-113.770
-1.350,0.496,0.232,-492.554,-130.493,-126.831
-1.304,0.687,0.076,-437.500,-135.986,-134.888
-1.170,0.913,-0.000,-376.770,-136.047,-123.047
-1.094,1.029,-0.001,-322.998,-141.724,-98.938
-1.094,1.010,0.028,-273.010,-148.071,-77.148
-1.111,0.914,0.053,-224.915,-151.367,-59.998
-1.139,0.783,0.025,-179.687,-155.212,-51.147
-1.146,0.700,-0.003,-142.273,-159.729,-51.514
-1.083,0.689,-0.039,-114.624,-161.987,-56.824
-0.970,0.769,-0.114,-97.107,-163.086,-61.707
-0.890,0.857,-0.211,-86.365,-160.034,-63.232
-0.846,0.893,-0.313,-79.468,-150.330,-55.786
-0.810,0.868,-0.383,-72.144,-137.268,-47.363
-0.824,0.826,-0.428,-63.293,-121.094,-43.701
-0.845,0.786,-0.438,-51.270,-104.736,-43.152
-0.855,0.747,-0.421,-35.706,-92.590,-41.138
-0.860,0.737,-0.386,-17.090,-84.778,-35.950
-0.853,0.734,-0.361,2.014,-80.383,-28.870
-0.833,0.771,-0.346,17.151,-77.759,-22.827
-0.781,0.841,-0.349,20.813,-75.928,-18.799
-0.726,0.874,-0.377,10.437,-71.838,-16.663
-0.682,0.875,-0.402,-5.066,-63.477,-17.883
-0.675,0.861,-0.403,-17.700,-49.866,-21.667
-0.683,0.867,-0.362,-23.010,-35.767,-24.658
-0.702,0.873,-0.282,-16.541,-26.550,-23.254
-0.727,0.854,-0.205,-0.427,-24.719,-14.832
-0.722,0.843,-0.161,21.179,-29.480,-4.211
-0.683,0.840,-0.160,41.260,-35.278,2.014
-0.646,0.860,-0.177,51.392,-39.429,3.174
-0.591,0.882,-0.184,49.561,-40.100,1.953
-0.535,0.902,-0.202,35.217,-37.231,-0.732
-0.507,0.906,-0.224,15.076,-30.457,-4.456
-0.489,0.907,-0.232,-1.526,-20.325,-9.216
-0.484,0.930,-0.204,-10.437,-9.277,-12.573
-0.515,0.951,-0.155,-10.803,-1.465,-11.292
-0.542,0.939,-0.104,-2.686,0.732,-4.150
-0.559,0.908,-0.075,10.315,-1.648,4.639
-0.562,0.884,-0.064,23.926,-5.798,10.559
-0.541,0.899,-0.052,33.752,-10.925,12.817
-0.518,0.905,-0.040,36.621,-15.198,14.587
-0.493,0.881,-0.041,31.555,-17.029,16.296
-0.447,0.883,-0.063,20.813,-15.686,13.855
-0.425,0.876,-0.074,7.080,-8.789,8.362
-0.437,0.878,-0.058,-3.662,-0.244,3.540
-0.445,0.884,-0.024,-6.409,6.714,0.366
-0.469,0.886,0.005,-2.686,8.972,0.671
-0.477,0.855,0.023,6.958,6.287,5.615
-0.477,0.819,0.017,18.555,0.916,10.925
-0.467,0.816,0.009,28.259,-4.333,12.756
-0.441,0.844,0.001,33.142,-7.874,13.000
-0.420,0.876,-0.011,30.396,-9.277,12.939

-1.585,0.963,-0.348,167.053,79.773,69.946
-1.789,0.978,-0.481,189.575,89.905,84.900
-2.048,0.978,-0.647,219.543,100.342,102.722
-2.312,1.045,-0.760,272.888,107.971,126.892
-2.504,1.199,-0.815,349.548,113.159,161.072
-2.649,1.339,-0.787,429.871,117.126,201.477
-2.705,1.418,-0.775,503.357,121.704,243.042
-2.636,1.442,-0.594,571.533,128.906,279.541
-2.472,1.347,-0.320,629.639,134.277,306.946
-2.315,1.174,0.080,679.138,136.902,321.716
-2.205,0.903,0.397,729.492,131.531,325.928
-2.124,0.655,0.526,769.531,122.253,312.622
-2.201,0.493,0.591,781.555,110.352,286.072
-2.408,0.527,0.389,762.207,95.215,257.202
-2.545,0.569,0.135,719.421,74.219,228.271
-2.626,0.623,-0.099,657.104,43.274,192.749
-2.612,0.706,-0.309,583.740,14.954,152.588
-2.422,0.815,-0.458,518.738,-3.235,120.300
-2.134,0.874,-0.579,488.525,-10.803,114.258
-1.661,0.599,-0.688,497.681,-12.268,140.442
-0.951,0.167,-0.875,518.677,-9.216,173.279
-0.001,-0.330,-1.171,512.878,-4.089,180.176
1.016,-0.740,-1.546,481.689,2.930,168.335
1.958,-1.129,-1.839,443.542,25.879,168.762
2.707,-1.423,-1.763,402.893,73.181,183.044
3.270,-1.638,-1.552,349.854,128.723,186.584
3.852,-1.768,-1.248,284.912,165.955,175.659
4.000,-1.908,-0.962,226.562,174.561,176.819
4.000,-2.210,-0.643,173.950,175.720,204.163
4.000,-2.247,-0.279,108.948,210.388,206.665
4.000,-2.196,0.354,33.447,293.396,156.555
4.000,-1.678,1.233,-26.794,380.066,65.125
3.405,-0.788,2.116,-38.147,412.781,-32.349
2.196,0.045,2.847,19.836,372.559,-79.590
1.150,0.523,3.085,117.310,262.634,-61.768
0.664,0.592,2.740,185.425,106.873,-20.813
0.852,0.358,1.986,170.105,-59.509,-13.184
1.337,0.010,0.908,79.895,-211.670,-36.621
1.966,-0.337,-0.202,-31.189,-312.073,-58.350
2.458,-0.710,-1.105,-99.915,-348.145,-60.181
2.649,-1.069,-1.682,-109.131,-318.970,-47.974
2.404,-1.208,-1.759,-84.167,-246.338,-37.415
1.999,-1.182,-1.487,-62.073,-167.297,-34.912
1.574,-1.078,-1.090,-70.984,-111.145,-41.138
1.265,-1.021,-0.808,-112.000,-83.496,-49.133
1.124,-1.027,-0.662,-177.246,-75.745,-49.927
1.147,-1.114,-0.570,-248.108,-74.524,-44.556
1.240,-1.230,-0.383,-308.472,-69.153,-39.124
1.287,-1.309,-0.101,-348.938,-62.988,-36.804
1.218,-1.299,0.174,-369.568,-60.730,-40.100
1.027,-1.188,0.335,-376.099,-62.012,-49.866
0.874,-1.125,0.419,-377.686,-66.650,-59.021
0.830,-1.070,0.491,-380.493,-74.524,-67.688
0.679,-0.915,0.581,-381.897,-79.102,-79.773
0.336,-0.696,0.652,-383.545,-77.454,-88.745
0.027,-0.468,0.713,-394.104,-75.378,-88.318
-0.215,-0.286,0.790,-425.781,-83.252,-83.069
-0.383,-0.194,0.852,-485.413,-96.008,-79.773
-0.353,-0.125,0.875,-562.744,-108.093,-82.336
-0.345,0.018,0.854,-629.639,-114.990,-84.595
-0.412,0.155,0.889,-670.044,-112.366,-76.477
-0.447,0.220,0.903,-685.913,-105.530,-62.256
-0.628,0.297,0.875,-696.167,-97.839,-60.608
-0.943,0.338,0.717,-713.928,-84.229,-77.454
-1.281,0.487,0.596,-732.849,-68.604,-108.948
-1.578,0.556,0.536,-742.432,-61.523,-142.151
-1.773,0.664,0.492,-744.934,-74.341,-166.138
-1.829,0.732,0.459,-729.614,-101.807,-171.448
-1.809,0.679,0.439,-685.059,-128.784,-160.278
-1.756,0.570,0.402,-605.896,-154.541,-144.165
-1.660,0.530,0.283,-501.221,-175.903,-131.714
-1.588,0.569,0.091,-389.343,-190.186,-118.652
-1.495,0.696,-0.091,-284.424,-199.707,-100.708
-1.404,0.812,-0.256,-203.247,-204.285,-80.688
-1.346,0.874,-0.361,-154.724,-206.970,-66.650
-1.296,0.852,-0.433,-136.047,-206.787,-62.561
-1.246,0.801,-0.497,-136.658,-199.646,-66.528
-1.200,0.745,-0.539,-146.118,-187.134,-75.256
-1.169,0.694,-0.516,-153.687,-170.471,-83.557
-1.166,0.662,-0.419,-148.865,-147.766,-85.571
-1.089,0.688,-0.335,-130.188,-119.568,-80.200
-1.185,0.744,-0.190,-98.938,-94.543,-73.303
-1.232,0.792,-0.065,-59.387,-80.139,-58.167
-1.278,0.849,0.028,-22.827,-80.994,-36.011
-1.280,0.866,0.035,6.226,-90.088,-15.991
-1.197,0.860,-0.032,19.165,-101.257,-3.052
-1.094,0.858,-0.144,12.268,-108.093,-0.183
-1.000,0.863,-0.259,-9.033,-106.384,-4.822
-0.909,0.840,-0.358,-33.936,-99.182,-11.414
-0.838,0.817,-0.403,-53.528,-88.623,-17.456
-0.809,0.815,-0.406,-58.838,-75.439,-20.447
-0.783,0.798,-0.379,-45.105,-63.965,-14.038
-0.764,0.786,-0.344,-18.188,-56.335,-1.038
-0.743,0.785,-0.338,9.338,-52.185,11.047
-0.688,0.802,-0.342,27.649,-49.438,18.555
-0.650,0.803,-0.352,31.738,-44.250,22.461
-0.588,0.808,-0.340,22.095,-35.950,21.973
-0.562,0.776,-0.295,3.357,-27.405,17.578
-0.538,0.735,-0.231,-13.123,-18.066,10.315
-0.532,0.708,-0.155,-21.667,-9.155,3.784
-0.528,0.718,-0.097,-19.958,-4.883,-0.244
-0.532,0.748,-0.040,-9.888,-5.920,-1.831
-0.550,0.748,-0.010,5.493,-12.695,0.732
-0.518,0.773,-0.040,23.926,-22.583,5.615
-0.470,0.821,-0.106,36.316,-30.457,9.216
-0.432,0.863,-0.159,36.377,-33.264,11.841
-0.418,0.865,-0.199,24.231,-31.067,12.329
-0.420,0.842,-0.226,2.869,-25.574,8.118
-0.440,0.794,-0.241,-18.372,-18.494,1.160
-0.466,0.752,-0.242,-33.447,-10.803,-5.798
-0.492,0.747,-0.240,-37.781,-5.005,-12.451
-0.512,0.745,-0.241,-29.907,-2.014,-16.663
-0.525,0.763,-0.227,-11.475,-1.587,-15.320
-0.519,0.816,-0.221,11.108,-2.991,-9.827
-0.509,0.865,-0.215,28.625,-4.578,-2.991
-0.504,0.899,-0.220,35.889,-5.310,3.296
-0.488,0.924,-0.215,31.921,-2.747,5.188
-0.482,0.936,-0.194,18.005,2.075,1.770
-0.475,0.920,-0.168,1.404,8.362,-3.357

-1.479,0.886,-0.348,241.028,114.075,71.533
-1.591,0.984,-0.363,293.274,122.253,98.999
-1.796,1.067,-0.405,354.187,130.554,135.376
-2.042,1.145,-0.452,416.504,140.686,176.025
-2.319,1.249,-0.443,476.013,148.682,219.421
-2.421,1.300,-0.334,527.405,151.550,262.756
-2.445,1.306,-0.111,565.552,143.616,301.697
-2.542,1.200,0.007,600.403,130.371,336.792
-2.597,1.017,0.003,632.385,114.868,362.549
-2.483,0.817,0.022,656.494,101.135,369.812
-2.310,0.629,0.092,666.992,98.816,358.032
-2.118,0.462,0.170,652.405,108.337,326.965
-2.043,0.275,0.285,617.737,117.188,282.593
-2.148,0.256,0.337,575.989,116.821,229.126
-2.443,0.430,0.381,541.199,101.563,171.692
-2.837,0.667,0.165,520.874,63.232,137.634
-3.043,0.866,-0.276,510.071,5.493,131.348
-3.031,0.891,-0.762,504.944,-50.781,131.531
-2.734,0.965,-1.416,493.286,-84.961,122.803
-2.273,1.031,-1.941,483.032,-93.872,116.394
-1.611,0.884,-2.326,487.793,-76.233,137.878
-0.745,0.546,-2.581,495.422,-25.940,180.786
0.342,-0.042,-2.428,481.201,36.377,217.834
1.542,-0.689,-1.949,433.899,88.562,244.995
2.703,-1.541,-1.457,366.882,114.136,274.658
3.954,-2.433,-0.965,287.903,121.216,303.772
4.000,-3.171,-0.721,203.857,133.362,303.528
4.000,-3.723,-0.511,139.343,176.514,279.358
4.000,-4.000,0.101,83.496,263.123,237.061
4.000,-3.712,1.097,7.202,388.245,147.705
4.000,-2.505,2.111,-55.969,514.465,15.076
4.000,-0.704,3.137,-60.059,558.105,-105.896
3.443,0.763,3.902,24.170,507.141,-152.222
1.900,1.292,4.000,149.292,395.752,-96.375
0.690,1.276,4.000,206.970,236.572,-1.526
0.412,0.931,3.082,150.757,38.147,32.104
1.134,0.183,1.763,9.888,-166.992,2.563
2.058,-0.493,0.066,-139.832,-330.139,-33.203
2.876,-1.156,-1.389,-214.111,-403.687,-44.922
3.050,-1.651,-2.161,-175.415,-377.625,-36.194
2.732,-1.737,-2.273,-73.242,-302.307,-29.968
2.218,-1.493,-2.109,10.742,-225.403,-41.260
1.839,-1.077,-1.863,18.372,-176.453,-65.979
1.632,-0.801,-1.676,-47.791,-145.081,-87.769
1.514,-0.805,-1.544,-160.400,-117.371,-94.604
1.506,-1.062,-1.395,-273.193,-89.539,-88.928
1.480,-1.321,-1.169,-349.731,-56.763,-84.167
1.390,-1.454,-0.844,-379.395,-25.696,-87.830
1.296,-1.413,-0.457,-372.803,-4.822,-96.191
1.148,-1.190,-0.054,-344.055,3.967,-101.501
0.915,-0.868,0.293,-308.899,-0.366,-98.511
0.722,-0.554,0.491,-288.391,-18.250,-85.754
0.630,-0.304,0.579,-296.082,-41.626,-67.139
0.508,-0.164,0.544,-334.229,-56.824,-48.584
0.387,-0.083,0.490,-401.550,-59.021,-35.400
0.251,-0.062,0.553,-480.042,-53.589,-29.846
0.058,-0.038,0.742,-546.692,-46.936,-31.799
-0.139,0.045,0.980,-595.459,-47.180,-30.396
-0.266,0.076,1.062,-633.850,-54.749,-16.418
-0.175,0.007,1.073,-665.466,-61.829,-3.723
-0.302,-0.033,1.068,-691.162,-66.895,-13.245
-0.565,-0.047,0.876,-728.943,-65.796,-45.715
-0.763,0.060,0.689,-781.799,-59.753,-97.656
-1.008,0.203,0.598,-827.271,-59.448,-161.804
-1.202,0.356,0.567,-851.379,-67.993,-220.398
-1.310,0.492,0.561,-838.501,-91.492,-257.141
-1.293,0.684,0.450,-769.592,-129.517,-259.399
-1.216,0.841,0.227,-633.423,-170.776,-225.769
-1.069,0.994,-0.037,-459.229,-205.383,-164.124
-0.969,1.091,-0.319,-292.175,-225.037,-101.074
-0.967,1.172,-0.498,-180.298,-222.839,-65.063
-1.076,1.149,-0.542,-153.992,-205.811,-64.209
-1.210,1.056,-0.487,-198.914,-190.796,-95.703
-1.299,0.953,-0.417,-269.226,-185.364,-142.761
-1.317,0.924,-0.379,-325.256,-189.209,-181.335
-1.286,0.963,-0.424,-338.501,-195.068,-197.937
-1.218,1.077,-0.521,-307.495,-193.909,-190.308
-1.153,1.230,-0.676,-252.075,-184.937,-168.640
-1.073,1.350,-0.803,-195.557,-170.288,-139.954
-1.025,1.411,-0.862,-154.114,-153.503,-111.145
-1.024,1.432,-0.840,-133.423,-137.024,-87.402
-1.078,1.374,-0.776,-127.808,-127.197,-65.796
-1.087,1.259,-0.725,-126.343,-126.831,-45.471
-1.052,1.135,-0.726,-123.169,-131.592,-29.907
-0.981,1.070,-0.759,-116.150,-134.766,-19.409
-0.889,1.033,-0.827,-106.079,-130.493,-11.719
-0.812,0.996,-0.893,-95.886,-117.310,-5.432
-0.754,0.949,-0.927,-86.731,-98.450,-1.221
-0.693,0.914,-0.938,-78.796,-75.867,0.000
-0.625,0.906,-0.887,-73.364,-52.856,-1.404
-0.580,0.922,-0.766,-69.031,-33.020,-2.441
-0.574,0.925,-0.606,-62.195,-19.470,0.488
-0.589,0.902,-0.468,-46.204,-14.038,8.179
-0.561,0.870,-0.370,-21.606,-15.015,18.921
-0.532,0.850,-0.326,5.615,-17.395,27.588
-0.487,0.874,-0.320,28.625,-18.372,31.555
-0.458,0.897,-0.318,41.931,-18.738,35.034
-0.429,0.891,-0.333,44.617,-18.494,37.537
-0.398,0.866,-0.359,37.415,-16.418,36.804
-0.365,0.829,-0.381,21.667,-12.695,31.494
-0.332,0.785,-0.389,2.380,-8.362,22.583
-0.318,0.771,-0.379,-12.512,-4.028,12.268
-0.321,0.782,-0.334,-18.494,-0.122,4.761
-0.339,0.820,-0.275,-12.146,1.892,4.456
-0.367,0.820,-0.239,3.540,0.549,9.888
-0.401,0.807,-0.214,23.437,-4.089,17.151
-0.407,0.787,-0.208,43.335,-11.658,23.376
-0.390,0.787,-0.229,58.044,-18.066,26.001
-0.349,0.808,-0.256,63.843,-20.508,24.536
-0.296,0.823,-0.306,59.998,-17.578,19.714
-0.275,0.840,-0.340,47.913,-9.399,11.414
-0.267,0.877,-0.332,32.532,1.526,1.160
-0.271,0.925,-0.309,17.395,12.329,-9.338
-0.288,0.969,-0.265,4.761,18.982,-15.930
-0.321,1.010,-0.211,-1.831,20.630,-15.381
-0.349,0.981,-0.197,-1.648,15.869,-8.240
-0.355,0.909,-0.219,2.197,7.690,-0.122
-0.334,0.871,-0.251,6.653,0.793,2.380
-0.310,0.878,-0.277,8.362,-2.319,-0.305

-1.187,0.991,-0.478,148.743,69.458,65.918
-1.257,1.017,-0.507,184.326,80.383,83.191
-1.350,1.043,-0.552,211.670,93.262,104.370
-1.480,1.053,-0.604,228.394,106.567,124.023
-1.605,1.040,-0.650,239.685,116.455,141.968
-1.752,1.007,-0.711,258.423,121.338,161.011
-1.898,1.001,-0.786,295.715,123.901,181.763
-2.015,1.028,-0.816,349.487,122.437,204.285
-2.120,1.075,-0.780,417.114,115.112,230.957
-2.185,1.200,-0.722,505.371,100.464,261.902
-2.226,1.404,-0.612,601.135,80.994,298.889
-2.333,1.568,-0.446,683.289,55.054,342.651
-2.372,1.640,-0.384,743.469,24.231,385.925
-2.336,1.539,-0.362,777.405,4.456,415.833
-2.219,1.321,-0.284,778.870,-6.348,415.588
-1.992,1.083,-0.190,762.634,-6.836,386.475
-1.980,0.857,-0.175,728.943,7.751,335.022
-2.325,0.822,-0.333,660.583,11.902,275.513
-2.764,0.882,-0.853,572.327,-16.235,226.074
-2.908,0.914,-1.538,489.624,-67.566,197.021
-2.643,0.889,-2.209,441.284,-110.535,192.871
-2.097,0.799,-2.949,448.303,-128.601,217.346
-1.190,0.516,-3.579,497.375,-100.891,272.705
-0.000,-0.158,-3.837,551.331,-20.081,336.487
1.503,-0.833,-3.413,552.002,87.585,381.287
2.802,-1.608,-2.350,489.502,183.594,403.870
3.845,-2.485,-1.161,378.418,240.540,411.682
4.000,-3.270,-0.132,262.329,253.967,388.611
4.000,-3.832,0.586,190.125,231.812,342.590
4.000,-4.000,1.286,177.429,178.528,307.190
4.000,-4.000,1.894,185.913,170.837,302.734
4.000,-3.995,2.509,173.584,309.875,243.530
4.000,-2.650,3.492,99.731,492.187,96.924
3.940,-0.659,4.000,-16.907,538.757,-62.500
2.502,1.357,4.000,-91.858,454.590,-187.561
1.061,2.669,4.000,-70.679,289.917,-222.351
0.531,2.394,4.000,7.080,92.468,-158.020
1.114,1.405,3.041,33.447,-106.873,-34.973
2.129,0.275,1.517,-18.982,-301.697,40.588
3.139,-0.550,0.049,-104.126,-431.946,39.185
3.724,-1.094,-1.058,-144.287,-451.599,2.197
3.744,-1.467,-1.629,-110.535,-377.075,-25.269
3.144,-1.410,-1.763,-36.255,-264.282,-44.739
2.506,-1.147,-1.639,21.606,-171.021,-52.002
1.969,-0.939,-1.466,23.376,-115.967,-57.373
1.548,-0.818,-1.327,-28.320,-85.327,-67.871
1.246,-0.850,-1.204,-104.187,-66.589,-75.500
1.087,-1.002,-1.056,-173.462,-54.016,-78.918
0.961,-1.087,-0.979,-222.717,-39.490,-84.778
0.794,-1.113,-0.890,-248.108,-16.846,-93.689
0.636,-1.060,-0.711,-252.686,7.019,-102.173
0.455,-0.943,-0.443,-242.676,25.024,-107.910
0.194,-0.783,-0.203,-228.394,35.278,-107.056
-0.019,-0.620,-0.023,-219.727,34.180,-99.976
-0.211,-0.438,0.159,-221.741,21.240,-89.355
-0.379,-0.289,0.246,-236.877,2.075,-75.806
-0.373,-0.201,0.294,-267.639,-13.977,-60.547
-0.361,-0.119,0.295,-319.031,-20.508,-46.204
-0.395,-0.105,0.340,-390.564,-11.047,-41.687
-0.371,-0.098,0.518,-475.098,8.484,-44.373
-0.447,-0.017,0.801,-552.856,28.015,-49.500
-0.630,0.045,1.066,-614.258,47.363,-52.063
-0.681,0.105,1.349,-662.292,54.810,-52.002
-0.798,0.219,1.560,-703.064,41.992,-55.420
-1.016,0.308,1.656,-741.821,20.264,-67.871
-1.039,0.387,1.676,-779.785,-8.057,-90.637
-1.099,0.508,1.587,-803.467,-47.729,-118.835
-1.061,0.506,1.391,-811.279,-82.886,-143.127
-1.042,0.457,1.178,-802.490,-106.323,-162.659
-1.044,0.483,0.980,-778.198,-127.930,-177.490
-1.085,0.595,0.760,-730.408,-140.076,-187.134
-1.061,0.728,0.558,-670.349,-148.193,-181.274
-1.049,0.849,0.376,-610.901,-162.903,-162.170
-1.096,0.943,0.224,-555.176,-181.274,-139.771
-1.139,0.892,0.046,-509.277,-203.796,-115.295
-1.143,0.775,-0.158,-478.821,-229.065,-93.384
-1.118,0.708,-0.407,-459.167,-253.235,-86.731
-1.021,0.691,-0.667,-435.364,-269.775,-88.318
-0.925,0.724,-0.877,-395.874,-271.240,-79.468
-0.847,0.760,-1.018,-335.815,-251.953,-57.678
-0.834,0.751,-1.105,-262.451,-215.942,-33.813
-0.863,0.747,-1.107,-193.237,-174.438,-16.235
-0.921,0.773,-1.009,-136.719,-134.949,-9.827
-1.041,0.840,-0.863,-92.773,-105.591,-9.399
-1.128,0.868,-0.739,-60.120,-90.698,-4.822
-1.147,0.841,-0.660,-38.147,-88.196,4.822
-1.130,0.797,-0.638,-26.184,-89.355,12.634
-1.065,0.790,-0.642,-21.851,-89.844,12.634
-0.989,0.832,-0.652,-24.536,-89.050,7.629
-0.920,0.863,-0.668,-32.227,-83.618,1.160
-0.850,0.892,-0.699,-41.016,-74.585,-3.540
-0.741,0.902,-0.733,-47.607,-59.753,-3.540
-0.671,0.888,-0.714,-49.866,-40.527,0.427
-0.649,0.854,-0.644,-47.791,-21.240,5.920
-0.656,0.832,-0.518,-39.307,-6.531,9.888
-0.696,0.838,-0.370,-20.752,-1.953,13.794
-0.697,0.816,-0.272,7.202,-5.066,20.386
-0.659,0.804,-0.233,38.147,-11.536,26.001
-0.594,0.813,-0.239,63.660,-17.944,26.733
-0.529,0.846,-0.256,76.721,-19.775,23.804
-0.486,0.892,-0.281,75.134,-17.517,18.738
-0.428,0.949,-0.318,60.547,-13.428,12.878
-0.384,0.979,-0.360,37.170,-9.521,8.972
-0.354,0.982,-0.377,12.207,-6.470,8.423
-0.352,0.946,-0.369,-7.385,-4.395,10.681
-0.382,0.902,-0.352,-18.494,-4.028,12.695
-0.409,0.845,-0.340,-17.456,-6.531,15.442
-0.427,0.802,-0.318,-6.897,-12.146,18.982
-0.420,0.775,-0.316,7.874,-17.700,21.118
-0.395,0.774,-0.328,20.386,-21.729,20.081
-0.347,0.807,-0.358,25.208,-22.644,16.602
-0.304,0.849,-0.394,20.020,-18.677,13.428
-0.301,0.859,-0.419,6.592,-10.925,11.292
-0.290,0.833,-0.426,-9.033,-2.563,7.629
-0.313,0.800,-0.421,-22.827,6.470,2.258
-0.339,0.770,-0.408,-29.968,14.893,-3.113
-0.374,0.766,-0.373,-28.320,19.714,-6.470
-0.420,0.762,-0.328,-17.517,19.958,-6.531
-0.445,0.757,-0.303,-0.061,15.320,-3.479

-1.161,1.152,-0.696,269.165,70.801,61.340
-1.360,1.216,-0.749,308.838,96.252,84.534
-1.647,1.284,-0.783,361.877,120.361,115.540
-1.964,1.362,-0.768,422.546,140.686,153.992
-2.342,1.407,-0.747,484.924,152.649,201.843
-2.591,1.480,-0.670,545.105,153.442,248.718
-2.624,1.519,-0.521,600.342,143.921,287.292
-2.524,1.575,-0.305,652.832,127.686,321.167
-2.365,1.636,-0.017,708.374,105.408,357.117
-2.295,1.586,0.218,761.963,72.021,401.978
-2.141,1.413,0.239,806.641,35.828,442.261
-1.983,1.079,0.109,818.237,8.667,450.806
-1.762,0.732,-0.163,788.452,-7.446,416.504
-1.541,0.493,-0.388,722.900,-5.371,337.708
-1.592,0.424,-0.714,624.146,0.732,230.713
-2.291,0.853,-1.269,513.916,-11.292,127.930
-2.896,1.304,-2.025,445.068,-46.753,83.130
-2.814,1.516,-2.796,442.749,-78.003,118.469
-2.421,1.351,-3.361,484.070,-78.735,194.824
-1.731,0.851,-3.723,517.822,-31.006,250.977
-1.181,0.491,-3.780,505.066,53.711,252.319
-0.573,0.116,-3.513,474.304,156.677,238.037
0.186,-0.454,-3.035,458.618,246.582,249.634
1.374,-1.309,-2.539,446.838,306.763,273.254
2.816,-2.258,-2.053,424.988,342.102,273.682
4.000,-3.104,-1.353,403.320,362.976,250.916
4.000,-3.688,-0.932,384.399,372.253,221.436
4.000,-3.899,-0.778,358.398,377.075,188.904
4.000,-4.000,-0.426,313.843,390.442,166.077
4.000,-3.850,0.293,217.285,431.458,147.034
4.000,-2.796,1.284,101.196,509.827,74.097
4.000,-1.259,2.569,41.931,549.255,-13.672
3.661,-0.014,3.797,87.585,493.835,-41.199
2.109,0.504,4.000,183.655,367.493,-5.554
0.961,0.609,4.000,206.726,188.049,30.701
0.414,0.438,2.926,121.460,-30.090,15.564
0.735,-0.115,0.945,-10.742,-237.122,-12.451
1.247,-0.760,-1.320,-99.731,-368.042,-24.658
1.806,-1.263,-3.088,-97.046,-379.883,-21.790
1.807,-1.414,-3.672,-27.283,-288.269,-15.930
1.183,-1.113,-3.130,43.518,-147.522,-15.137
0.388,-0.635,-2.120,60.608,-35.034,-17.822
-0.099,-0.357,-1.256,26.062,11.108,-5.981
-0.112,-0.443,-0.796,-40.344,9.644,23.437
0.214,-0.749,-0.728,-120.117,-6.897,51.208
0.714,-1.206,-0.737,-184.998,-13.855,69.092
1.167,-1.542,-0.659,-222.961,-1.648,69.702
1.304,-1.612,-0.384,-234.253,22.522,51.575
1.366,-1.532,0.082,-223.083,37.292,35.583
1.397,-1.401,0.521,-210.022,26.550,27.344
1.382,-1.268,0.703,-217.590,-7.019,19.592
1.476,-1.237,0.650,-246.643,-56.335,10.071
1.648,-1.328,0.513,-282.776,-107.300,0.854
1.733,-1.434,0.336,-314.636,-143.616,-9.216
1.760,-1.437,0.189,-334.106,-161.987,-24.048
1.501,-1.354,0.154,-337.280,-166.748,-42.664
1.220,-1.188,0.194,-335.632,-164.551,-56.213
0.908,-0.935,0.291,-335.327,-165.405,-63.354
0.688,-0.701,0.374,-344.788,-168.030,-63.171
0.494,-0.469,0.426,-367.798,-169.800,-54.321
0.286,-0.261,0.414,-405.273,-167.236,-36.621
0.076,-0.067,0.427,-455.383,-158.264,-15.076
-0.127,-0.001,0.463,-518.677,-146.118,6.409
-0.172,0.041,0.541,-589.111,-130.859,24.658
-0.354,0.133,0.571,-655.029,-112.671,41.260
-0.618,0.231,0.645,-710.632,-90.820,58.411
-0.846,0.270,0.765,-757.935,-71.716,67.566
-0.912,0.173,0.992,-799.683,-68.848,63.049
-1.022,0.061,1.190,-834.412,-91.064,39.063
-1.151,-0.064,1.222,-863.831,-126.343,-0.122
-1.093,-0.117,1.159,-870.667,-163.635,-38.330
-1.017,-0.222,0.917,-846.008,-197.815,-63.843
-1.081,-0.241,0.441,-797.058,-211.914,-70.374
-1.281,-0.149,0.056,-721.497,-211.365,-72.571
-1.424,0.038,-0.148,-635.925,-211.426,-81.909
-1.507,0.161,-0.213,-560.486,-211.243,-89.417
-1.619,0.221,-0.196,-497.986,-216.003,-98.572
-1.659,0.282,-0.091,-440.369,-225.647,-110.046
-1.641,0.367,-0.029,-381.409,-246.826,-114.929
-1.486,0.486,-0.079,-317.810,-274.902,-109.436
-1.252,0.587,-0.282,-256.287,-294.495,-96.069
-1.018,0.649,-0.552,-205.078,-290.894,-84.412
-0.892,0.707,-0.827,-165.466,-265.686,-82.642
-0.821,0.802,-1.014,-142.334,-229.736,-88.806
-0.787,0.919,-1.050,-132.935,-193.542,-94.604
-0.840,1.008,-0.995,-127.136,-163.513,-91.187
-0.880,1.043,-0.920,-113.770,-141.479,-75.500
-0.909,1.047,-0.856,-93.201,-129.517,-52.429
-0.919,1.007,-0.842,-70.007,-124.329,-29.785
-0.891,0.991,-0.856,-49.072,-118.958,-12.329
-0.800,0.971,-0.917,-36.011,-108.826,-5.005
-0.704,0.931,-0.969,-32.471,-89.417,-4.211
-0.658,0.886,-0.962,-34.241,-60.913,-7.690
-0.614,0.874,-0.857,-33.813,-28.870,-15.503
-0.604,0.881,-0.683,-24.658,-2.930,-23.376
-0.644,0.925,-0.490,-3.906,10.864,-23.132
-0.647,0.930,-0.355,28.381,10.925,-11.169
-0.609,0.936,-0.297,61.707,3.601,7.935
-0.553,0.970,-0.281,84.534,-5.188,24.597
-0.494,0.991,-0.283,89.233,-12.634,32.593
-0.433,1.004,-0.285,73.364,-18.188,32.532
-0.368,1.031,-0.281,42.297,-23.315,24.170
-0.322,1.023,-0.302,8.240,-25.757,10.681
-0.277,0.983,-0.323,-17.212,-23.071,0.061
-0.272,0.911,-0.330,-27.527,-16.052,-4.272
-0.292,0.865,-0.308,-20.935,-8.240,-4.089
-0.323,0.858,-0.270,-3.113,-4.761,-1.465
-0.327,0.882,-0.234,18.921,-6.775,4.517
-0.326,0.927,-0.229,37.109,-12.146,12.939
-0.307,0.968,-0.230,48.218,-18.127,20.142
-0.283,0.993,-0.224,49.683,-22.522,24.780
-0.259,1.008,-0.217,41.382,-23.315,25.024
-0.241,0.997,-0.229,25.574,-20.325,20.447
-0.253,0.958,-0.248,6.775,-15.320,14.526
-0.267,0.917,-0.271,-6.348,-9.949,8.362
-0.285,0.874,-0.285,-9.888,-5.371,2.686
-0.305,0.830,-0.291,-5.005,-2.441,0.244
-0.307,0.820,-0.286,5.432,-1.099,-0.427
-0.316,0.881,-0.274,18.860,-1.770,-2.258

-1.080,1.106,-0.481,87.952,84.534,58.228
-1.195,1.066,-0.514,103.821,91.797,71.167
-1.299,1.036,-0.570,123.779,100.952,80.444
-1.418,1.025,-0.625,145.569,112.610,87.769
-1.567,1.032,-0.695,168.152,126.160,93.140
-1.664,1.063,-0.776,191.650,137.939,95.642
-1.630,1.206,-0.827,218.994,148.621,101.257
-1.587,1.371,-0.860,251.648,159.729,124.329
-1.577,1.454,-0.873,291.626,171.936,164.978
-1.643,1.458,-0.879,340.393,182.678,216.431
-1.787,1.363,-0.909,388.245,193.115,267.639
-1.969,1.248,-0.915,433.533,196.838,311.218
-1.926,1.120,-0.842,479.187,192.322,344.727
-1.860,0.957,-0.781,526.062,183.594,364.197
-1.809,0.827,-0.732,587.097,177.856,371.887
-1.684,0.687,-0.610,662.048,177.185,371.338
-1.596,0.595,-0.405,742.065,178.284,364.502
-1.566,0.451,-0.219,808.594,176.758,357.544
-1.642,0.242,-0.152,841.797,168.762,339.478
-1.796,0.109,-0.177,829.285,155.518,294.556
-2.090,0.104,-0.340,774.109,136.047,229.919
-2.296,0.208,-0.546,699.585,96.558,155.396
-2.397,0.357,-0.891,622.009,42.542,90.393
-2.196,0.452,-1.341,560.791,-1.343,63.110
-1.761,0.421,-1.791,533.508,-21.606,79.590
-1.160,0.027,-2.137,535.889,-9.155,130.249
-0.265,-0.600,-2.377,523.376,20.508,177.063
0.874,-1.241,-2.360,469.299,50.476,187.195
1.863,-1.874,-2.013,403.748,81.177,177.185
3.010,-2.517,-1.612,358.276,111.206,167.419
4.000,-2.902,-1.425,338.501,132.263,162.354
4.000,-3.329,-1.211,346.863,170.288,169.800
4.000,-3.848,-0.826,329.285,244.568,185.791
4.000,-4.000,-0.023,236.450,344.971,164.795
4.000,-3.500,0.970,94.299,473.389,90.088
4.000,-2.223,2.045,-25.146,584.717,-12.329
4.000,-0.459,3.167,-66.589,618.591,-96.497
3.659,1.129,3.919,-8.423,561.523,-123.657
1.974,1.712,4.000,103.577,423.096,-61.646
0.847,1.373,3.830,164.673,233.093,42.114
0.973,0.476,2.639,98.511,22.156,82.825
1.715,-0.552,1.035,-67.322,-183.167,48.462
2.455,-1.253,-0.704,-216.858,-306.091,-1.709
2.909,-1.728,-1.906,-237.244,-325.073,-21.423
2.938,-1.864,-2.339,-137.451,-267.700,-8.484
2.527,-1.620,-2.134,-25.452,-173.767,-1.160
1.879,-1.112,-1.590,5.554,-95.642,-18.921
1.265,-0.628,-1.069,-44.128,-55.603,-38.574
0.919,-0.459,-0.743,-126.343,-48.645,-27.100
0.890,-0.609,-0.589,-203.674,-53.223,6.409
0.991,-0.943,-0.494,-266.663,-52.368,32.654
1.010,-1.250,-0.351,-310.730,-40.039,35.278
0.836,-1.335,-0.108,-325.378,-24.170,15.991
0.600,-1.245,0.161,-305.908,-12.695,-8.057
0.296,-1.014,0.390,-275.452,-8.667,-27.344
0.060,-0.769,0.524,-260.803,-15.930,-38.330
-0.131,-0.503,0.609,-273.376,-31.250,-36.926
-0.236,-0.333,0.683,-306.885,-44.922,-32.166
-0.324,-0.222,0.712,-359.924,-53.467,-23.071
-0.491,-0.102,0.751,-426.880,-56.213,-10.803
-0.610,-0.088,0.793,-505.249,-58.716,0.122
-0.614,-0.161,0.807,-592.224,-61.646,5.188
-0.610,-0.191,0.766,-680.176,-54.565,0.244
-0.638,-0.048,0.715,-753.418,-22.583,-12.329
-0.755,0.209,0.801,-805.420,33.813,-21.301
-0.882,0.408,1.063,-826.111,78.918,-26.794
-1.014,0.551,1.319,-823.425,84.290,-34.790
-1.139,0.645,1.462,-808.289,57.434,-45.471
-1.199,0.744,1.449,-786.560,6.775,-59.143
-1.249,0.821,1.268,-756.226,-58.533,-73.425
-1.170,0.798,0.956,-717.712,-119.873,-80.200
-0.936,0.692,0.629,-670.776,-163.269,-77.881
-0.809,0.594,0.359,-619.324,-179.749,-76.294
-0.806,0.606,0.189,-564.819,-170.776,-77.820
-0.852,0.793,0.098,-503.418,-155.151,-79.712
-0.942,1.016,0.142,-430.847,-146.912,-77.515
-1.057,1.131,0.155,-356.628,-149.231,-67.871
-1.113,1.166,0.108,-294.861,-158.752,-55.176
-1.134,1.131,0.028,-250.732,-174.072,-46.204
-1.119,1.063,-0.073,-225.586,-189.941,-43.945
-1.082,1.028,-0.179,-213.074,-202.942,-47.791
-0.993,1.047,-0.278,-202.942,-212.341,-53.162
-0.872,1.130,-0.384,-190.552,-214.783,-53.162
-0.751,1.164,-0.505,-173.157,-205.627,-44.067
-0.723,1.144,-0.639,-153.015,-185.486,-28.320
-0.731,1.112,-0.716,-132.324,-157.898,-13.245
-0.754,1.091,-0.736,-112.305,-130.310,-5.493
-0.783,1.041,-0.706,-94.604,-109.192,-1.648
-0.774,0.993,-0.649,-79.529,-93.323,2.808
-0.730,0.996,-0.589,-65.247,-80.994,4.883
-0.680,1.026,-0.532,-54.077,-69.885,5.310
-0.635,1.061,-0.458,-49.438,-62.622,9.521
-0.598,1.087,-0.381,-49.622,-59.570,17.029
-0.559,1.035,-0.373,-56.030,-57.373,25.024
-0.528,0.960,-0.420,-67.322,-54.382,27.710
-0.491,0.907,-0.462,-78.125,-51.025,23.132
-0.438,0.900,-0.490,-82.581,-46.875,16.296
-0.391,0.867,-0.491,-75.562,-39.124,13.916
-0.376,0.824,-0.466,-58.289,-28.320,16.663
-0.365,0.824,-0.410,-35.706,-19.165,19.104
-0.387,0.871,-0.337,-14.282,-15.076,22.888
-0.407,0.906,-0.289,3.418,-17.944,31.677
-0.395,0.921,-0.264,13.855,-26.184,40.771
-0.368,0.888,-0.259,12.939,-34.302,44.983
-0.337,0.847,-0.271,3.174,-39.063,41.870
-0.308,0.820,-0.275,-10.010,-40.649,32.349
-0.283,0.778,-0.282,-20.996,-38.757,20.630
-0.274,0.729,-0.288,-22.766,-33.508,10.803
-0.254,0.720,-0.298,-14.343,-26.550,2.930
-0.238,0.755,-0.302,0.061,-18.616,-1.831
-0.225,0.811,-0.283,16.785,-12.390,-1.038
-0.245,0.869,-0.254,32.776,-10.193,6.531
-0.269,0.904,-0.228,44.067,-11.108,17.578
-0.293,0.922,-0.225,46.204,-15.198,25.208
-0.283,0.923,-0.232,37.842,-20.569,25.391
-0.258,0.912,-0.241,21.301,-23.987,19.653
-0.237,0.890,-0.261,2.747,-23.682,11.353
-0.237,0.859,-0.291,-11.963,-19.470,3.113
-0.258,0.847,-0.313,-18.616,-11.963,-3.174

-1.131,1.186,-0.521,104.980,73.242,56.580
-1.253,1.208,-0.548,150.879,84.412,72.327
-1.405,1.218,-0.562,203.979,95.276,94.055
-1.598,1.225,-0.564,259.155,105.286,117.615
-1.814,1.240,-0.566,311.035,115.417,139.465
-2.008,1.233,-0.566,355.713,123.596,162.048
-2.290,1.261,-0.609,402.527,129.211,187.622
-2.498,1.307,-0.607,458.069,135.620,219.543
-2.578,1.380,-0.509,513.855,139.709,257.935
-2.573,1.457,-0.375,560.791,139.648,298.340
-2.551,1.455,-0.225,594.299,129.517,339.233
-2.531,1.369,-0.144,623.108,104.431,381.958
-2.396,1.288,-0.175,658.203,69.519,421.265
-2.229,1.090,-0.220,688.354,41.748,445.862
-2.052,0.803,-0.306,701.233,30.518,447.205
-2.075,0.439,-0.460,707.520,39.673,424.316
-2.210,0.108,-0.557,705.750,48.401,380.615
-2.199,-0.070,-0.598,688.538,54.688,308.167
-2.249,0.007,-0.727,651.794,55.115,207.153
-2.527,0.247,-0.932,601.624,40.894,103.149
-2.570,0.726,-1.360,565.796,20.020,24.536
-2.320,1.183,-1.741,558.289,-1.221,0.854
-1.855,1.265,-1.894,576.477,-2.258,49.561
-1.107,1.015,-1.923,583.679,23.682,134.094
-0.164,0.490,-1.939,545.288,56.824,199.219
1.103,-0.273,-1.921,450.684,79.895,233.215
2.400,-0.949,-1.521,330.017,92.590,248.901
3.573,-1.817,-1.059,229.736,106.934,257.568
4.000,-2.655,-0.956,153.687,127.930,245.605
4.000,-3.043,-0.896,116.455,167.175,193.115
4.000,-3.297,-0.230,131.104,234.314,158.447
4.000,-3.327,0.799,145.630,335.510,165.894
4.000,-2.804,1.839,116.638,458.435,151.245
4.000,-1.757,2.838,38.513,533.264,101.501
3.919,-0.693,3.679,-33.081,527.222,43.457
2.582,0.303,3.958,-55.115,456.848,-10.864
1.377,0.672,3.721,-17.273,327.393,-33.081
0.820,0.353,3.104,34.912,157.104,-2.747
1.158,-0.253,2.241,42.114,-20.447,43.701
1.840,-0.825,1.103,-6.042,-182.800,44.250
2.498,-1.174,-0.021,-78.186,-292.847,3.479
2.898,-1.331,-0.896,-123.657,-331.116,-36.133
2.861,-1.286,-1.395,-109.497,-310.181,-52.673
2.613,-1.085,-1.536,-59.875,-257.935,-47.302
2.250,-0.871,-1.435,-28.198,-199.280,-41.626
1.850,-0.651,-1.203,-52.124,-147.095,-48.584
1.488,-0.472,-0.939,-122.681,-106.445,-62.927
1.193,-0.365,-0.658,-203.918,-77.087,-66.711
0.937,-0.317,-0.383,-269.043,-54.871,-54.504
0.701,-0.315,-0.173,-314.148,-41.504,-33.386
0.681,-0.307,0.021,-346.741,-32.410,-14.282
0.517,-0.228,0.219,-371.277,-22.827,-2.747
0.175,-0.148,0.283,-394.958,-10.498,9.827
-0.016,-0.044,0.358,-429.260,0.244,30.334
-0.250,0.043,0.427,-469.788,0.977,44.495
-0.412,0.036,0.444,-513.306,0.488,51.208
-0.448,0.036,0.537,-561.707,1.648,52.673
-0.654,0.162,0.702,-609.497,-1.648,48.035
-0.821,0.308,0.906,-654.663,-7.874,46.082
-0.847,0.354,1.121,-691.162,-20.020,53.101
-0.806,0.219,1.224,-714.722,-36.011,61.890
-0.800,0.141,1.208,-738.098,-46.143,71.289
-0.867,0.071,1.152,-761.108,-51.025,64.575
-0.976,0.050,1.065,-768.921,-55.054,35.339
-1.183,0.130,0.966,-748.047,-57.617,-0.305
-1.326,0.162,0.869,-689.575,-64.819,-23.804
-1.432,0.253,0.835,-606.018,-86.304,-35.767
-1.493,0.357,0.955,-522.156,-118.774,-52.734
-1.590,0.502,1.085,-448.792,-160.461,-85.876
-1.505,0.757,1.112,-387.695,-207.520,-117.676
-1.363,0.997,1.059,-334.656,-256.897,-130.798
-1.174,1.119,0.896,-295.898,-300.537,-129.211
-1.033,1.227,0.646,-279.175,-325.867,-129.761
-0.924,1.375,0.331,-280.151,-327.881,-140.930
-0.802,1.524,-0.019,-288.269,-316.223,-149.048
-0.757,1.567,-0.357,-287.720,-301.697,-140.015
-0.775,1.565,-0.591,-254.333,-279.236,-119.690
-0.804,1.496,-0.672,-179.687,-236.816,-94.177
-0.916,1.431,-0.628,-87.830,-183.289,-66.345
-1.022,1.378,-0.462,-3.296,-136.536,-42.114
-1.124,1.333,-0.252,54.016,-104.797,-21.301
-1.187,1.325,-0.087,75.500,-87.952,-5.127
-1.159,1.270,0.032,68.604,-85.388,5.737
-1.052,1.173,0.065,40.527,-91.003,13.123
-0.912,1.094,0.005,0.244,-95.764,12.634
-0.843,1.038,-0.100,-37.292,-92.834,5.920
-0.762,1.047,-0.208,-61.829,-83.130,-0.977
-0.629,1.019,-0.291,-68.359,-68.848,-5.615
-0.607,1.017,-0.302,-61.584,-54.443,1.648
-0.597,0.995,-0.274,-45.227,-42.664,15.564
-0.590,0.956,-0.231,-24.719,-36.377,30.945
-0.567,0.903,-0.180,-6.897,-34.729,43.579
-0.528,0.834,-0.145,2.563,-34.912,48.462
-0.485,0.783,-0.125,3.052,-37.720,46.326
-0.438,0.745,-0.120,-1.831,-39.001,38.208
-0.399,0.731,-0.119,-6.531,-38.025,27.161
-0.374,0.746,-0.136,-8.301,-34.729,16.785
-0.341,0.812,-0.143,-5.249,-28.137,8.301
-0.328,0.892,-0.126,0.732,-20.813,5.371
-0.351,0.937,-0.092,8.850,-15.869,9.583
-0.368,0.954,-0.067,18.982,-14.465,17.212
-0.368,0.952,-0.043,28.870,-16.907,25.208
-0.356,0.944,-0.026,33.020,-20.630,31.067
-0.327,0.920,-0.015,26.550,-23.682,33.203
-0.319,0.887,-0.010,9.155,-25.818,29.602
-0.328,0.852,-0.009,-11.169,-24.719,22.095
-0.337,0.818,-0.023,-25.940,-20.447,13.794
-0.355,0.797,-0.034,-30.273,-14.709,6.958
-0.386,0.795,-0.037,-24.475,-8.179,3.845
-0.424,0.816,-0.030,-11.169,-3.906,2.686
-0.426,0.865,-0.016,3.601,-2.136,3.967
-0.400,0.900,0.003,15.503,-2.502,8.118
-0.393,0.902,0.029,20.996,-2.930,13.794
-0.410,0.893,0.058,22.461,-2.197,17.700
-0.424,0.883,0.091,21.301,-1.953,17.456
-0.437,0.863,0.101,17.700,-3.906,15.747
-0.447,0.849,0.081,11.780,-6.897,13.428
-0.435,0.825,0.030,3.662,-9.277,8.545
-0.427,0.821,-0.022,-4.822,-9.338,2.808

-1.325,1.083,-0.170,156.616,83.374,71.472
-1.448,1.012,-0.215,183.899,92.712,91.064
-1.577,0.973,-0.246,205.872,100.769,99.243
-1.678,0.945,-0.279,226.990,103.394,101.685
-1.811,0.957,-0.362,252.625,104.065,105.835
-1.918,0.961,-0.496,291.443,105.469,116.882
-2.013,1.043,-0.575,353.638,110.229,138.184
-2.048,1.284,-0.536,444.031,116.821,173.523
-2.134,1.543,-0.449,540.710,123.596,227.234
-2.245,1.664,-0.386,615.784,121.460,291.138
-2.188,1.667,-0.269,657.288,112.244,342.590
-2.121,1.535,-0.032,668.701,102.539,367.554
-1.942,1.291,0.174,665.588,90.210,368.469
-1.814,1.037,0.308,666.016,83.679,346.497
-1.763,0.805,0.412,671.631,79.712,305.664
-1.669,0.668,0.540,669.128,68.237,257.446
-1.720,0.583,0.563,645.264,55.847,211.792
-2.009,0.632,0.387,604.980,33.569,168.396
-2.296,0.631,0.042,553.894,-13.611,139.343
-2.307,0.493,-0.476,496.826,-70.618,124.695
-2.089,0.420,-1.150,434.814,-117.004,112.305
-1.592,0.334,-1.842,394.470,-141.052,114.746
-0.977,0.047,-2.419,397.217,-126.038,150.269
-0.130,-0.409,-2.747,419.312,-74.219,204.163
0.868,-0.733,-2.708,418.518,-7.874,233.398
1.793,-1.069,-2.326,372.314,61.890,236.450
2.500,-1.391,-1.664,293.579,140.259,216.492
2.911,-1.648,-1.050,208.679,206.360,169.922
3.379,-1.842,-0.661,144.592,231.384,124.512
4.000,-2.067,-0.423,118.835,226.379,107.178
4.000,-2.206,-0.197,115.479,222.046,120.789
4.000,-2.065,0.300,109.497,256.348,144.531
4.000,-1.646,0.992,75.134,340.149,155.029
4.000,-1.124,1.770,-0.671,431.824,143.921
4.000,-0.571,2.513,-93.933,479.187,98.938
3.293,-0.022,3.042,-171.692,464.600,21.362
2.176,0.578,3.211,-204.041,396.484,-49.988
1.343,0.694,3.070,-170.349,284.546,-73.425
0.972,0.477,2.636,-101.013,145.325,-40.039
1.217,-0.005,1.986,-56.213,-9.766,22.644
1.758,-0.541,1.245,-62.988,-163.086,57.617
2.402,-1.010,0.433,-114.868,-271.912,45.898
2.886,-1.284,-0.309,-175.354,-308.899,13.000
2.943,-1.382,-0.780,-204.285,-289.429,-17.334
2.715,-1.304,-0.935,-191.467,-238.464,-35.034
2.348,-1.153,-0.814,-154.968,-178.711,-35.034
1.961,-0.983,-0.522,-127.197,-125.549,-25.452
1.531,-0.803,-0.104,-128.662,-88.501,-20.752
1.067,-0.595,0.288,-159.302,-72.693,-22.339
0.657,-0.406,0.571,-211.060,-76.477,-19.897
0.435,-0.306,0.681,-272.583,-94.421,-7.629
0.309,-0.288,0.678,-335.388,-112.061,8.972
0.317,-0.355,0.638,-394.653,-119.995,22.705
0.349,-0.394,0.630,-444.702,-117.004,25.879
0.151,-0.361,0.627,-479.309,-103.210,22.156
-0.180,-0.274,0.631,-502.319,-81.909,16.052
-0.508,-0.138,0.709,-519.226,-65.613,10.254
-0.843,0.041,0.847,-529.602,-66.284,8.423
-1.194,0.141,0.928,-533.630,-85.022,17.273
-1.319,0.114,1.043,-534.180,-117.737,29.724
-1.192,0.040,1.187,-531.982,-159.729,36.316
-1.065,-0.071,1.219,-519.104,-199.524,35.950
-0.878,-0.233,1.142,-490.784,-211.609,32.410
-0.877,-0.266,0.895,-451.965,-184.753,27.771
-1.125,-0.146,0.705,-400.146,-132.080,18.066
-1.402,-0.019,0.725,-351.562,-97.168,5.371
-1.598,0.037,0.777,-327.454,-97.656,-9.827
-1.718,0.084,0.850,-329.712,-120.972,-38.879
-1.776,0.065,0.831,-343.079,-153.320,-83.679
-1.723,0.109,0.720,-353.271,-189.087,-131.348
-1.576,0.202,0.595,-340.149,-218.750,-167.847
-1.416,0.383,0.536,-303.711,-230.225,-182.373
-1.224,0.521,0.427,-250.122,-221.619,-175.232
-1.210,0.624,0.250,-193.909,-190.002,-157.593
-1.177,0.717,0.126,-144.714,-152.222,-140.625
-1.167,0.743,0.098,-118.469,-122.864,-132.019
-1.265,0.772,0.154,-115.540,-111.023,-135.376
-1.309,0.757,0.193,-120.605,-114.319,-140.991
-1.238,0.803,0.159,-125.549,-128.418,-139.954
-1.156,0.829,0.068,-134.094,-146.851,-132.629
-1.084,0.806,-0.047,-140.381,-160.950,-122.681
-0.994,0.810,-0.193,-135.315,-165.283,-108.276
-0.886,0.773,-0.324,-119.019,-159.058,-86.914
-0.836,0.793,-0.389,-94.360,-141.846,-65.430
-0.795,0.842,-0.374,-65.247,-111.206,-53.833
-0.801,0.890,-0.359,-42.053,-77.332,-44.250
-0.906,0.984,-0.166,-20.691,-46.265,-30.212
-0.977,0.974,-0.037,-8.240,-27.161,-19.470
-1.019,0.936,0.045,-3.967,-26.489,-10.742
-0.993,0.874,0.071,-5.493,-36.987,-5.615
-0.935,0.841,0.064,-11.414,-49.866,-7.568
-0.867,0.829,0.051,-18.433,-62.012,-12.390
-0.785,0.810,0.002,-25.085,-71.777,-15.747
-0.688,0.819,-0.080,-30.701,-76.050,-17.883
-0.571,0.877,-0.116,-35.339,-71.228,-18.005
-0.510,0.935,-0.117,-38.208,-57.556,-14.832
-0.510,0.973,-0.099,-35.583,-39.429,-8.789
-0.550,0.976,-0.051,-24.780,-23.499,0.122
-0.589,0.924,0.010,-8.301,-16.479,12.573
-0.609,0.846,0.039,8.484,-15.869,24.658
-0.602,0.774,0.046,22.278,-19.043,29.968
-0.576,0.740,0.055,30.640,-23.560,27.222
-0.549,0.735,0.069,34.302,-28.381,20.813
-0.514,0.778,0.069,33.264,-33.264,15.259
-0.483,0.829,0.049,27.466,-36.499,11.292
-0.444,0.859,0.016,15.686,-37.231,8.362
-0.434,0.886,-0.008,1.404,-35.339,7.202
-0.444,0.878,-0.021,-10.620,-31.433,7.080
-0.460,0.843,-0.034,-17.761,-27.100,7.019
-0.469,0.820,-0.047,-17.822,-22.705,7.141
-0.464,0.832,-0.053,-12.512,-18.677,6.409
-0.476,0.824,-0.048,-3.479,-14.832,7.385
-0.487,0.796,-0.039,7.141,-11.719,11.169
-0.500,0.778,-0.028,19.348,-8.423,13.794
-0.498,0.810,-0.000,29.480,-5.798,14.648
-0.501,0.855,0.031,33.203,-3.479,15.747
-0.536,0.859,0.044,28.381,-1.892,17.456
-0.565,0.884,0.047,17.212,-2.441,15.991
-0.558,0.916,0.043,2.380,-5.737,10.193

-1.744,0.765,-0.202,94.299,140.564,61.890
-1.918,0.754,-0.200,147.156,153.320,75.195
-2.049,0.819,-0.149,204.895,161.865,88.379
-2.117,0.962,-0.104,260.864,164.795,105.347
-2.224,1.044,-0.126,308.899,173.035,132.385
-2.425,1.100,-0.172,346.680,182.861,163.635
-2.646,1.130,-0.271,376.038,188.599,194.458
-2.790,1.150,-0.278,409.729,189.453,228.455
-2.798,1.120,-0.354,464.294,186.340,264.832
-2.706,1.120,-0.357,530.701,183.899,300.293
-2.498,1.096,-0.347,601.440,183.838,334.473
-2.287,1.004,-0.276,652.405,190.186,353.027
-2.094,0.795,-0.073,672.546,194.092,350.464
-2.025,0.640,0.056,668.945,195.496,323.059
-2.067,0.437,0.072,652.283,195.740,274.902
-2.206,0.279,0.003,627.930,185.547,214.294
-2.469,0.188,-0.073,600.769,158.020,147.339
-2.812,0.171,-0.318,578.613,117.615,80.322
-2.948,0.354,-0.714,557.312,60.425,33.875
-2.650,0.487,-1.239,540.649,4.211,22.705
-1.877,0.406,-1.807,525.085,-20.203,52.979
-0.716,0.085,-2.247,499.573,-5.066,107.910
0.722,-0.196,-2.313,452.881,36.133,155.945
1.862,-0.422,-2.054,383.179,88.135,178.284
3.089,-0.800,-1.595,294.495,135.986,182.800
4.000,-1.053,-0.904,192.688,182.007,171.143
4.000,-1.291,-0.136,113.586,223.022,144.958
4.000,-1.548,0.427,62.256,264.160,125.610
4.000,-1.728,0.793,12.390,292.358,106.445
4.000,-1.612,1.221,-25.208,319.946,78.552
4.000,-1.124,1.550,-32.837,380.371,35.706
3.997,-0.408,1.956,-23.926,420.837,-3.113
2.953,0.334,2.375,-4.639,402.893,-21.729
1.903,0.785,2.593,28.442,336.975,-23.926
1.083,0.902,2.516,58.960,238.892,-13.550
0.572,0.719,2.073,64.209,120.789,1.221
0.412,0.374,1.381,38.147,-4.150,17.151
0.490,-0.090,0.561,-3.052,-116.089,28.015
0.678,-0.589,-0.259,-43.274,-193.115,30.518
0.911,-1.043,-1.026,-67.627,-223.083,27.100
1.103,-1.318,-1.571,-66.284,-202.759,27.954
1.107,-1.463,-1.707,-32.471,-137.512,34.058
0.906,-1.503,-1.449,15.320,-53.589,40.649
0.647,-1.392,-1.002,48.462,14.832,40.527
0.453,-1.241,-0.443,54.993,56.580,34.058
0.346,-1.194,0.066,35.461,71.777,32.471
0.382,-1.238,0.396,-2.380,62.744,34.363
0.543,-1.302,0.602,-46.936,38.818,33.264
0.764,-1.382,0.732,-80.017,13.000,27.710
0.971,-1.406,0.809,-92.407,-9.094,21.912
1.138,-1.363,0.861,-86.304,-29.114,18.127
1.258,-1.272,0.906,-70.007,-46.021,15.015
1.351,-1.157,0.942,-57.739,-61.951,9.827
1.451,-1.028,0.981,-58.533,-81.665,1.587
1.516,-0.897,1.018,-71.777,-103.577,-6.958
1.532,-0.789,1.038,-95.642,-124.451,-13.367
1.609,-0.764,1.065,-126.892,-146.851,-16.235
1.656,-0.750,1.081,-160.767,-171.753,-16.785
1.652,-0.762,1.032,-192.322,-190.735,-18.311
1.658,-0.753,1.011,-224.670,-200.745,-23.071
1.557,-0.713,1.072,-260.010,-206.909,-30.090
1.336,-0.678,1.090,-298.950,-211.243,-36.377
1.069,-0.609,1.022,-343.628,-213.013,-39.978
0.828,-0.482,0.946,-396.057,-211.731,-42.236
0.529,-0.384,0.854,-455.444,-208.801,-38.208
0.297,-0.328,0.801,-516.907,-208.740,-30.212
0.086,-0.300,0.785,-576.355,-214.844,-27.039
-0.043,-0.344,0.760,-631.531,-222.412,-30.212
-0.095,-0.328,0.791,-680.054,-229.492,-42.542
-0.255,-0.339,0.731,-713.501,-234.314,-61.951
-0.384,-0.391,0.588,-734.131,-226.257,-79.285
-0.549,-0.473,0.397,-745.972,-210.266,-92.651
-0.658,-0.508,0.257,-747.192,-191.711,-108.093
-0.798,-0.396,0.091,-730.408,-171.570,-129.028
-1.004,-0.190,-0.058,-687.683,-150.757,-148.621
-1.166,0.023,-0.145,-624.084,-140.137,-154.175
-1.234,0.248,-0.166,-548.767,-147.156,-137.146
-1.224,0.416,-0.148,-464.661,-168.335,-96.191
-1.254,0.457,-0.159,-369.873,-193.359,-43.274
-1.335,0.352,-0.182,-271.729,-207.214,0.732
-1.438,0.225,-0.204,-185.242,-209.351,22.522
-1.469,0.142,-0.261,-126.343,-203.674,17.273
-1.472,0.121,-0.345,-103.333,-190.857,-10.254
-1.469,0.235,-0.353,-104.370,-176.575,-47.058
-1.461,0.457,-0.307,-110.535,-164.917,-74.524
-1.488,0.584,-0.244,-110.046,-160.034,-78.552
-1.552,0.626,-0.198,-99.792,-167.236,-66.589
-1.546,0.608,-0.211,-78.369,-183.167,-56.824
-1.464,0.593,-0.281,-54.138,-199.036,-54.688
-1.337,0.622,-0.372,-30.701,-207.397,-54.810
-1.215,0.704,-0.456,-9.705,-202.271,-53.101
-1.103,0.757,-0.489,3.357,-185.730,-47.180
-1.057,0.756,-0.474,4.761,-163.696,-39.001
-1.042,0.762,-0.377,-1.465,-138.306,-36.499
-1.032,0.735,-0.331,-9.521,-112.793,-43.823
-1.048,0.733,-0.288,-16.541,-96.008,-50.476
-1.042,0.768,-0.223,-17.456,-86.609,-52.124
-1.021,0.794,-0.207,-6.287,-78.796,-49.255
-0.977,0.865,-0.203,13.855,-67.749,-41.870
-0.912,0.903,-0.186,35.095,-55.481,-31.982
-0.927,0.953,-0.131,50.842,-47.302,-17.334
-0.877,0.914,-0.133,60.303,-40.466,-5.188
-0.902,0.925,-0.090,62.622,-38.452,7.935
-0.834,0.880,-0.095,53.406,-34.363,8.301
-0.809,0.863,-0.087,36.743,-30.151,3.479
-0.792,0.875,-0.073,20.508,-31.372,-1.892
-0.750,0.858,-0.082,14.038,-32.898,-2.686
-0.718,0.842,-0.135,17.639,-27.222,-2.869
-0.696,0.852,-0.161,27.039,-19.104,-3.540
-0.688,0.911,-0.136,39.734,-10.803,-2.197
-0.688,0.941,-0.111,52.856,-5.310,4.517
-0.692,0.930,-0.061,63.049,-4.456,15.076
-0.679,0.911,-0.025,64.880,-5.798,22.217
-0.669,0.888,0.019,56.213,-9.094,22.644
-0.634,0.872,0.059,42.053,-13.794,18.555
-0.589,0.826,0.062,28.381,-16.296,13.428
-0.559,0.770,0.043,15.991,-15.320,9.155
-0.535,0.717,0.029,9.094,-12.512,4.456
-0.542,0.687,0.015,8.606,-8.789,-0.183

-1.623,0.946,-0.012,250.244,105.286,64.087
-1.752,0.974,-0.112,253.357,114.807,73.853
-1.944,0.970,-0.180,268.311,126.709,85.571
-2.202,1.008,-0.217,310.059,142.090,101.135
-2.438,1.140,-0.133,377.869,156.921,121.948
-2.614,1.440,0.156,456.299,164.246,154.602
-2.745,1.596,0.456,526.123,149.841,205.200
-2.707,1.552,0.634,574.097,114.014,252.747
-2.595,1.396,0.710,596.497,69.702,276.855
-2.491,1.194,0.647,597.900,22.644,276.306
-2.436,1.008,0.504,587.036,-21.973,258.240
-2.364,0.912,0.262,576.782,-60.181,231.445
-2.256,0.907,0.009,578.369,-95.642,205.139
-2.212,1.025,-0.283,591.919,-124.695,196.472
-2.143,1.116,-0.605,610.046,-136.780,208.557
-2.041,1.011,-0.851,622.925,-137.695,232.544
-1.714,0.825,-1.066,616.455,-130.188,240.601
-1.345,0.730,-1.250,581.970,-109.924,222.351
-0.920,0.555,-1.363,522.827,-75.989,199.219
-0.296,0.298,-1.312,451.782,-44.617,188.110
0.480,0.017,-1.204,378.845,-29.175,193.787
1.412,-0.356,-1.133,314.880,-21.912,213.928
2.717,-1.073,-1.013,259.766,-9.827,250.549
3.976,-1.541,-0.934,211.975,21.606,270.813
4.000,-1.595,-0.721,188.110,104.675,242.371
4.000,-1.567,-0.122,186.462,226.562,209.839
4.000,-1.631,0.834,171.631,327.087,206.604
4.000,-1.742,1.730,131.226,393.188,205.566
4.000,-1.784,2.344,73.242,422.241,180.603
3.386,-1.704,2.740,16.541,400.513,135.437
2.510,-1.445,2.937,-17.456,343.201,80.994
1.685,-0.879,2.846,-21.118,272.217,28.076
1.157,-0.334,2.482,10.986,186.646,-23.254
0.850,0.080,1.913,53.345,86.060,-42.175
0.825,0.189,1.188,82.581,-9.460,-23.254
0.960,0.071,0.413,81.909,-83.374,5.066
1.105,-0.247,-0.267,51.514,-127.075,26.733
1.235,-0.621,-0.764,7.446,-136.902,35.461
1.269,-0.940,-1.009,-29.114,-119.080,34.729
1.194,-1.099,-0.991,-51.025,-83.923,30.151
1.077,-1.151,-0.779,-61.768,-46.692,24.902
0.980,-1.182,-0.490,-69.275,-20.569,21.057
0.962,-1.235,-0.239,-81.482,-8.057,15.991
0.973,-1.276,-0.039,-98.999,-4.761,8.240
0.994,-1.281,0.116,-115.967,-2.625,-2.258
1.020,-1.261,0.250,-127.502,-2.380,-14.221
1.052,-1.181,0.339,-133.606,-4.272,-25.513
1.082,-1.061,0.400,-137.085,-8.423,-34.119
1.156,-0.931,0.457,-142.212,-15.625,-39.673
1.206,-0.818,0.494,-151.978,-26.306,-41.748
1.203,-0.722,0.493,-169.678,-35.461,-41.626
1.185,-0.641,0.506,-196.716,-41.260,-39.978
1.128,-0.559,0.590,-230.225,-45.898,-37.720
0.987,-0.490,0.671,-269.165,-50.903,-33.936
0.820,-0.513,0.708,-313.477,-56.519,-26.611
0.678,-0.650,0.720,-360.352,-64.209,-20.691
0.526,-0.808,0.728,-396.118,-74.036,-22.095
0.382,-0.889,0.715,-405.151,-80.078,-31.677
0.316,-0.885,0.687,-387.817,-79.651,-42.358
0.208,-0.767,0.650,-355.103,-73.975,-51.331
0.057,-0.615,0.630,-320.801,-62.744,-55.054
-0.062,-0.425,0.661,-299.377,-50.476,-49.622
-0.164,-0.277,0.737,-299.194,-44.861,-46.814
-0.373,-0.159,0.757,-319.275,-43.579,-50.964
-0.565,-0.044,0.716,-356.995,-39.795,-62.805
-0.692,0.029,0.655,-395.630,-36.804,-77.942
-0.750,0.097,0.671,-417.297,-38.147,-88.989
-0.812,0.150,0.761,-408.203,-41.687,-91.492
-0.851,0.211,0.877,-372.864,-44.495,-80.994
-0.885,0.272,1.014,-325.378,-52.246,-55.847
-0.945,0.326,1.120,-280.151,-70.007,-25.818
-0.949,0.338,1.102,-251.282,-91.614,0.916
-0.847,0.292,1.001,-246.643,-112.061,16.846
-0.765,0.246,0.863,-266.296,-127.441,14.221
-0.806,0.223,0.736,-304.138,-128.784,-12.939
-0.866,0.177,0.642,-348.389,-117.615,-61.035
-0.911,0.260,0.627,-388.733,-109.497,-115.173
-1.007,0.425,0.667,-414.246,-112.793,-156.921
-1.040,0.618,0.717,-419.983,-124.207,-171.692
-1.083,0.693,0.709,-399.597,-145.508,-161.255
-1.042,0.703,0.614,-355.957,-166.321,-136.108
-1.028,0.751,0.471,-298.157,-175.903,-110.901
-1.043,0.775,0.312,-242.676,-170.959,-86.182
-1.069,0.760,0.217,-201.721,-158.752,-66.650
-1.094,0.745,0.182,-177.185,-143.494,-61.890
-1.171,0.731,0.214,-165.405,-129.150,-71.533
-1.222,0.706,0.232,-164.795,-123.352,-87.708
-1.212,0.779,0.241,-170.776,-128.113,-101.929
-1.188,0.840,0.184,-175.354,-137.207,-111.755
-1.126,0.920,0.077,-175.476,-147.156,-109.436
-1.031,0.950,-0.032,-163.879,-152.283,-92.407
-0.986,0.923,-0.109,-139.465,-147.156,-68.054
-0.980,0.864,-0.144,-102.844,-131.104,-44.373
-0.986,0.825,-0.108,-61.401,-109.436,-27.893
-0.992,0.841,-0.061,-30.457,-89.661,-19.287
-0.993,0.847,-0.012,-14.221,-74.585,-14.526
-0.963,0.824,0.046,-9.216,-65.125,-11.597
-0.944,0.780,0.103,-10.864,-60.364,-9.399
-0.927,0.748,0.137,-13.367,-59.448,-8.179
-0.885,0.719,0.131,-13.855,-63.232,-6.836
-0.836,0.723,0.100,-12.268,-69.397,-5.554
-0.778,0.742,0.042,-9.094,-72.144,-4.883
-0.719,0.769,-0.015,-7.507,-70.496,-3.784
-0.665,0.782,-0.055,-10.498,-65.918,-2.197
-0.638,0.781,-0.056,-17.822,-59.021,-0.488
-0.632,0.805,-0.010,-24.536,-51.331,0.244
-0.664,0.776,0.048,-27.588,-44.739,2.625
-0.700,0.728,0.078,-29.053,-41.321,5.554
-0.724,0.681,0.085,-27.588,-43.091,7.080
-0.722,0.665,0.079,-23.987,-48.950,6.165
-0.697,0.679,0.046,-19.470,-54.871,2.686
-0.666,0.705,-0.001,-12.512,-56.702,-2.136
-0.609,0.773,-0.046,-4.150,-53.833,-4.883
-0.559,0.850,-0.085,1.831,-46.692,-3.723
-0.558,0.894,-0.095,3.235,-35.034,2.136
-0.595,0.909,-0.084,2.502,-22.766,7.324
-0.632,0.917,-0.050,1.953,-13.489,9.705
-0.653,0.910,-0.007,1.343,-9.155,11.292
-0.666,0.876,0.023,1.831,-10.010,12.878

-1.558,1.067,0.005,125.183,123.901,-5.981
-1.574,1.190,0.070,153.015,134.644,6.165
-1.611,1.255,0.093,180.298,144.592,33.142
-1.641,1.278,0.090,202.209,155.457,68.665
-1.702,1.242,0.088,216.614,162.659,103.943
-1.758,1.142,0.057,224.426,167.297,132.141
-1.807,1.013,0.050,226.685,168.884,152.466
-1.834,0.934,0.051,235.291,167.053,167.114
-1.787,0.865,0.056,256.226,162.170,180.420
-1.697,0.828,0.022,283.691,159.241,193.970
-1.654,0.812,-0.025,307.739,161.316,205.200
-1.615,0.779,-0.063,323.914,165.710,215.149
-1.575,0.732,-0.061,328.308,172.302,222.412
-1.604,0.693,0.021,327.942,176.331,226.379
-1.689,0.657,0.199,331.360,171.326,228.577
-1.818,0.491,0.422,347.595,150.818,230.896
-1.872,0.351,0.577,377.136,114.868,227.478
-1.888,0.324,0.587,411.377,69.885,212.158
-1.860,0.333,0.521,441.772,22.949,190.247
-1.845,0.275,0.402,468.384,-16.602,177.185
-1.791,0.246,0.208,491.577,-41.321,173.401
-1.654,0.099,0.033,504.272,-53.101,173.218
-1.496,-0.087,-0.145,500.488,-55.542,166.504
-1.321,-0.258,-0.303,483.093,-50.903,148.132
-1.081,-0.413,-0.416,460.205,-40.710,122.620
-0.805,-0.480,-0.566,440.613,-25.879,97.229
-0.461,-0.546,-0.698,427.002,-4.700,81.177
-0.018,-0.494,-0.781,412.720,22.217,77.087
0.348,-0.418,-0.674,393.188,53.101,84.473
0.669,-0.533,-0.531,360.107,80.933,101.685
1.111,-0.686,-0.359,305.481,98.938,108.398
1.595,-0.776,-0.184,236.694,106.262,94.910
2.115,-0.835,-0.070,170.471,111.023,77.942
2.681,-0.944,-0.028,127.136,119.507,73.364
3.157,-1.035,0.066,108.521,144.104,82.275
3.446,-1.084,0.238,100.891,188.904,90.454
3.503,-1.039,0.574,92.407,244.141,92.957
3.268,-0.880,1.006,68.848,295.044,91.431
2.812,-0.669,1.416,29.785,322.571,85.388
2.350,-0.469,1.702,-13.062,312.500,77.820
1.985,-0.452,1.785,-53.101,273.743,63.171
1.654,-0.426,1.714,-90.881,226.196,25.024
1.286,-0.225,1.565,-122.925,175.354,-27.161
1.009,-0.068,1.391,-127.319,126.038,-56.580
0.843,-0.065,1.165,-100.342,82.703,-45.593
0.784,-0.193,0.928,-59.021,42.786,-10.925
0.801,-0.376,0.719,-28.259,9.155,21.240
0.854,-0.585,0.577,-19.714,-16.113,38.147
0.919,-0.784,0.502,-30.823,-33.936,42.664
0.963,-0.948,0.452,-49.866,-44.434,37.231
1.000,-1.074,0.428,-65.857,-51.514,26.184
1.083,-1.137,0.443,-73.120,-58.167,14.038
1.166,-1.107,0.475,-69.336,-63.416,2.930
1.235,-1.018,0.517,-56.091,-63.721,-3.845
1.277,-0.894,0.583,-38.940,-63.049,-7.080
1.306,-0.770,0.689,-23.621,-65.613,-7.446
1.293,-0.666,0.803,-16.663,-73.364,-4.456
1.314,-0.649,0.874,-21.118,-85.510,-0.061
1.362,-0.686,0.908,-40.527,-100.769,1.953
1.410,-0.728,0.963,-70.557,-117.493,-1.709
1.379,-0.784,0.976,-102.295,-132.568,-8.850
1.382,-0.853,0.963,-129.028,-147.583,-15.625
1.369,-0.885,0.927,-143.372,-160.828,-20.020
1.310,-0.871,0.886,-144.287,-166.016,-23.682
1.216,-0.816,0.842,-136.902,-163.269,-24.658
1.064,-0.736,0.809,-127.502,-156.982,-22.522
0.876,-0.644,0.768,-122.925,-148.437,-21.057
0.664,-0.520,0.801,-130.615,-136.597,-22.400
0.351,-0.432,0.806,-151.001,-124.390,-24.902
0.105,-0.411,0.812,-186.646,-115.356,-25.452
-0.105,-0.466,0.803,-230.896,-116.211,-24.353
-0.255,-0.513,0.749,-266.296,-125.366,-23.987
-0.313,-0.516,0.675,-279.541,-134.399,-22.949
-0.307,-0.464,0.582,-269.897,-137.756,-17.761
-0.334,-0.371,0.518,-250.366,-134.216,-8.789
-0.399,-0.267,0.496,-234.985,-124.939,-2.625
-0.543,-0.152,0.487,-233.032,-111.877,-0.244
-0.730,-0.106,0.536,-246.155,-98.999,-1.343
-0.889,-0.136,0.622,-274.170,-92.712,-2.441
-0.989,-0.199,0.721,-309.082,-95.886,-3.540
-1.021,-0.227,0.769,-340.637,-105.286,-8.911
-1.064,-0.274,0.750,-366.760,-115.112,-21.790
-1.096,-0.218,0.781,-388.428,-127.625,-42.786
-1.216,-0.116,0.798,-398.621,-141.541,-70.984
-1.340,-0.053,0.715,-402.832,-155.029,-95.825
-1.347,-0.028,0.580,-406.799,-172.913,-115.479
-1.256,-0.019,0.443,-413.330,-192.078,-133.545
-1.291,-0.037,0.244,-416.992,-197.571,-157.104
-1.319,-0.045,0.067,-412.598,-177.002,-174.377
-1.370,-0.065,0.033,-401.855,-155.396,-183.838
-1.433,-0.080,0.096,-380.432,-138.977,-187.683
-1.491,-0.086,0.187,-345.154,-123.901,-185.364
-1.532,-0.072,0.277,-299.011,-115.295,-182.068
-1.551,-0.015,0.334,-256.653,-120.117,-175.903
-1.537,0.034,0.326,-225.220,-136.536,-164.978
-1.479,0.087,0.258,-204.834,-158.081,-153.381
-1.371,0.159,0.191,-192.871,-171.997,-147.949
-1.265,0.214,0.094,-184.692,-169.678,-148.865
-1.175,0.315,0.057,-174.316,-158.630,-154.175
-1.089,0.454,0.059,-161.560,-140.930,-156.433
-1.097,0.589,0.134,-145.020,-120.972,-154.907
-1.140,0.673,0.226,-121.338,-106.873,-143.860
-1.149,0.743,0.279,-91.736,-100.952,-124.695
-1.126,0.758,0.273,-64.148,-103.333,-102.783
-1.112,0.752,0.232,-44.312,-113.098,-79.285
-1.115,0.722,0.165,-32.837,-125.488,-58.655
-0.999,0.705,-0.027,-28.198,-133.911,-46.265
-0.951,0.759,-0.154,-21.790,-135.864,-38.513
-0.862,0.826,-0.250,-17.212,-130.066,-32.837
-0.759,0.914,-0.337,-12.695,-108.032,-29.968
-0.741,1.015,-0.353,-7.263,-79.956,-27.039
-0.785,1.059,-0.290,-4.822,-55.603,-19.897
-0.833,1.020,-0.188,-0.488,-41.138,-7.629
-0.872,0.910,-0.122,6.958,-35.645,4.639
-0.878,0.799,-0.077,15.259,-37.537,11.414
-0.850,0.750,-0.034,22.583,-44.128,8.667
-0.802,0.764,-0.019,28.442,-50.842,1.404
-0.742,0.849,-0.058,32.715,-55.481,-2.869
-0.683,0.909,-0.109,33.997,-56.152,-2.625

-1.594,0.924,-0.177,220.642,151.733,119.446
-1.671,0.942,-0.181,228.821,163.696,140.625
-1.723,0.901,-0.150,246.521,169.617,161.011
-1.828,0.822,-0.120,281.738,172.974,182.190
-1.907,0.764,-0.073,333.435,171.692,202.698
-1.949,0.759,0.004,388.306,166.199,220.520
-1.989,0.766,0.062,434.937,158.447,234.985
-2.034,0.761,0.066,464.417,151.611,244.324
-2.104,0.737,0.049,475.525,150.330,247.192
-2.131,0.647,0.076,471.008,156.494,243.225
-2.109,0.498,0.130,463.501,165.344,230.896
-2.136,0.312,0.264,464.172,171.570,214.600
-2.159,0.095,0.350,482.483,176.636,190.369
-2.271,-0.004,0.420,506.897,169.983,157.349
-2.527,-0.067,0.405,531.372,143.127,130.737
-2.605,-0.043,0.292,551.941,103.699,119.141
-2.636,-0.005,0.129,562.561,56.030,114.136
-2.484,-0.005,-0.141,560.425,11.353,108.948
-2.086,-0.015,-0.441,547.485,-23.315,100.281
-1.590,0.026,-0.742,522.888,-44.128,90.332
-1.036,0.011,-0.955,497.498,-55.603,96.497
-0.112,-0.274,-1.195,468.628,-66.101,119.141
1.056,-0.588,-1.374,411.865,-80.078,130.554
2.207,-0.979,-1.429,324.219,-85.693,125.061
3.349,-1.484,-1.350,233.948,-47.424,119.751
4.000,-2.017,-1.113,173.767,25.513,121.216
4.000,-2.509,-0.598,158.813,122.559,128.967
4.000,-2.876,0.241,167.480,240.173,133.606
4.000,-2.786,1.195,154.663,366.089,110.291
4.000,-2.303,1.954,95.581,471.130,48.035
4.000,-1.483,2.448,-0.305,515.747,-38.940
3.458,-0.428,2.836,-88.501,492.310,-124.084
2.397,0.659,2.835,-126.404,420.898,-188.782
1.525,1.391,2.658,-93.262,309.998,-196.106
0.941,1.570,2.386,-7.446,173.767,-134.583
0.852,1.259,1.925,70.862,37.537,-37.048
1.122,0.704,1.222,84.106,-77.881,36.133
1.614,0.044,0.375,23.987,-152.588,65.796
2.005,-0.625,-0.396,-70.007,-172.546,59.448
1.948,-1.127,-0.784,-149.231,-148.499,36.743
1.562,-1.438,-0.641,-169.189,-118.347,10.803
1.485,-1.422,-0.401,-128.601,-108.276,-2.869
1.464,-1.324,-0.300,-56.702,-96.436,7.263
1.388,-1.146,-0.166,-2.319,-85.632,19.409
1.365,-1.056,-0.027,11.230,-79.529,19.653
1.342,-1.002,0.110,-16.724,-72.388,12.329
1.290,-0.999,0.212,-70.557,-67.383,5.249
1.203,-1.048,0.268,-127.380,-64.453,0.671
1.143,-1.163,0.324,-171.997,-65.857,-1.770
1.058,-1.229,0.317,-197.266,-67.688,-5.920
0.971,-1.223,0.275,-201.050,-69.092,-10.193
0.912,-1.168,0.266,-187.012,-70.679,-10.498
0.816,-1.056,0.270,-164.612,-70.129,-7.263
0.663,-0.883,0.300,-147.339,-67.871,-4.395
0.490,-0.702,0.357,-140.808,-68.115,-1.892
0.267,-0.558,0.402,-145.020,-69.275,5.127
0.095,-0.475,0.468,-160.583,-68.726,14.465
-0.116,-0.464,0.502,-184.204,-68.787,23.071
-0.195,-0.525,0.502,-213.989,-67.078,29.785
-0.222,-0.592,0.511,-242.859,-59.753,31.982
-0.343,-0.641,0.490,-262.756,-45.288,28.015
-0.432,-0.614,0.480,-281.128,-24.292,17.334
-0.484,-0.547,0.529,-300.842,-2.930,2.869
-0.531,-0.505,0.639,-325.623,17.395,-11.475
-0.662,-0.439,0.785,-354.126,36.865,-24.231
-0.771,-0.327,0.980,-380.005,47.729,-34.424
-0.855,-0.195,1.193,-394.836,43.335,-37.292
-0.974,-0.109,1.319,-394.104,25.696,-28.870
-0.957,-0.106,1.361,-387.512,-1.587,-17.822
-0.860,-0.184,1.323,-382.446,-37.170,-16.541
-0.682,-0.238,1.130,-382.629,-68.726,-32.288
-0.597,-0.216,0.886,-387.085,-78.003,-59.082
-0.582,-0.078,0.752,-393.188,-65.186,-88.196
-0.659,0.099,0.769,-398.315,-43.213,-111.206
-0.777,0.275,0.867,-405.823,-27.832,-121.521
-0.834,0.401,1.014,-414.124,-24.048,-118.347
-0.872,0.454,1.116,-416.992,-32.349,-107.666
-0.917,0.471,1.157,-405.945,-50.476,-96.802
-1.008,0.406,1.139,-381.165,-72.937,-89.050
-0.921,0.429,1.064,-351.135,-93.140,-83.008
-0.819,0.503,1.018,-317.993,-109.497,-87.524
-0.816,0.603,0.898,-288.879,-115.051,-100.647
-0.800,0.708,0.695,-267.456,-110.107,-100.952
-0.764,0.794,0.572,-248.779,-108.765,-93.933
-0.773,0.844,0.544,-237.061,-114.136,-88.318
-0.811,0.866,0.584,-230.591,-118.835,-85.938
-0.873,0.858,0.617,-224.060,-122.559,-86.975
-0.914,0.882,0.612,-213.257,-128.174,-89.294
-0.891,0.935,0.547,-197.510,-137.695,-87.524
-0.852,0.961,0.439,-179.443,-145.874,-78.003
-0.797,0.998,0.329,-163.757,-151.611,-63.477
-0.721,1.042,0.239,-153.625,-150.146,-50.476
-0.766,1.025,0.156,-148.132,-137.817,-44.495
-0.801,1.001,0.129,-141.724,-125.732,-42.786
-0.822,0.999,0.139,-132.263,-121.277,-39.612
-0.817,0.996,0.146,-122.192,-122.314,-30.945
-0.817,0.938,0.127,-108.704,-125.610,-19.775
-0.792,0.845,0.079,-93.445,-128.235,-11.230
-0.752,0.796,0.021,-79.773,-130.188,-7.202
-0.701,0.785,-0.041,-68.054,-129.700,-7.996
-0.675,0.784,-0.104,-57.922,-123.413,-10.620
-0.633,0.791,-0.147,-48.889,-112.183,-13.977
-0.623,0.799,-0.159,-42.175,-99.426,-18.372
-0.608,0.863,-0.115,-38.147,-87.585,-20.996
-0.619,0.928,-0.034,-32.837,-80.688,-14.465
-0.665,0.936,0.033,-25.146,-76.965,0.916
-0.718,0.876,0.058,-15.625,-75.439,15.564
-0.734,0.801,0.049,-7.874,-77.637,22.644
-0.736,0.765,0.033,-4.761,-82.703,21.851
-0.712,0.758,-0.015,-5.127,-86.304,13.367
-0.643,0.773,-0.114,-6.409,-84.351,2.869
-0.591,0.814,-0.191,-9.155,-75.439,-5.676
-0.567,0.867,-0.235,-12.329,-61.279,-13.428
-0.551,0.928,-0.217,-12.207,-44.922,-17.212
-0.551,1.023,-0.138,-6.470,-31.250,-15.015
-0.585,1.066,-0.041,3.540,-23.132,-3.967
-0.612,1.025,0.018,15.320,-23.315,14.160
-0.632,0.958,0.052,25.757,-29.114,28.870
-0.613,0.900,0.050,31.555,-34.485,32.837

-1.338,1.002,-0.182,119.080,102.295,40.039
-1.337,0.988,-0.187,134.460,112.549,43.030
-1.358,0.989,-0.181,153.076,123.962,48.401
-1.371,1.001,-0.176,171.021,135.681,58.472
-1.385,1.007,-0.142,185.913,145.691,71.899
-1.389,1.007,-0.079,198.242,151.733,86.121
-1.381,0.978,-0.010,210.571,151.184,102.966
-1.393,0.878,0.037,227.051,145.020,122.986
-1.427,0.743,0.038,250.854,135.498,143.433
-1.482,0.606,0.008,277.588,125.610,157.532
-1.575,0.559,-0.054,299.744,112.488,160.767
-1.702,0.581,-0.128,312.500,99.976,152.954
-1.738,0.658,-0.130,310.242,86.792,136.169
-1.626,0.720,-0.079,296.814,72.632,114.746
-1.542,0.770,-0.058,281.006,59.265,92.346
-1.512,0.776,-0.075,273.987,49.561,70.740
-1.560,0.880,-0.191,283.569,44.861,57.190
-1.789,1.113,-0.369,314.392,48.706,64.148
-2.015,1.284,-0.514,366.699,58.960,102.173
-2.164,1.295,-0.569,433.533,63.965,164.917
-2.080,1.087,-0.536,503.418,58.228,228.088
-1.863,0.699,-0.470,559.631,43.762,266.357
-1.653,0.255,-0.440,582.947,28.198,267.700
-1.462,0.023,-0.326,572.754,13.611,232.849
-1.364,-0.035,-0.238,542.908,-3.296,186.218
-1.173,-0.116,-0.166,499.939,-28.259,158.813
-0.690,-0.397,-0.258,464.233,-67.810,156.616
0.121,-0.738,-0.440,464.905,-110.229,177.673
1.175,-1.077,-0.552,507.019,-134.094,221.252
2.348,-1.488,-0.669,564.270,-120.178,284.485
3.325,-1.857,-0.551,594.543,-50.049,335.449
3.986,-2.421,-0.091,551.392,70.679,342.407
4.000,-3.080,0.626,417.664,204.163,288.879
4.000,-3.407,1.581,229.919,323.181,187.378
4.000,-3.284,2.547,54.749,420.471,71.045
3.516,-2.613,3.084,-67.078,467.163,-47.119
2.863,-1.299,3.244,-111.511,440.979,-150.940
2.140,0.296,3.020,-82.092,367.493,-208.923
1.373,1.395,2.687,-9.521,262.329,-195.435
0.874,1.678,2.316,59.753,143.127,-108.398
0.729,1.240,1.767,81.177,28.381,-2.075
0.834,0.440,1.040,40.283,-71.899,62.439
0.994,-0.464,0.275,-33.936,-137.390,78.247
1.092,-1.152,-0.311,-95.398,-164.429,62.195
1.035,-1.457,-0.741,-113.647,-158.447,38.757
0.936,-1.503,-0.959,-88.684,-130.371,28.503
0.856,-1.352,-0.966,-47.363,-92.712,28.625
0.758,-1.105,-0.829,-20.813,-50.415,26.855
0.618,-0.990,-0.549,-19.348,-11.902,22.217
0.558,-1.028,-0.130,-37.964,8.667,13.855
0.544,-1.099,0.164,-65.308,15.198,5.493
0.598,-1.138,0.313,-84.595,17.029,-2.136
0.664,-1.156,0.424,-90.149,21.851,-5.859
0.779,-1.108,0.510,-84.167,20.447,-9.583
0.857,-1.007,0.524,-73.059,20.569,-10.681
0.928,-0.897,0.553,-62.866,20.325,-8.972
0.998,-0.797,0.564,-59.937,16.541,-5.432
1.046,-0.735,0.590,-67.993,10.864,-0.366
1.069,-0.731,0.588,-84.290,2.197,4.089
1.092,-0.779,0.593,-106.567,-8.911,6.409
1.119,-0.865,0.589,-127.747,-20.142,6.165
1.146,-0.988,0.592,-146.912,-29.175,2.625
1.171,-1.046,0.597,-165.588,-33.020,-5.615
1.178,-1.060,0.616,-181.641,-32.532,-18.005
1.113,-0.989,0.599,-192.139,-27.588,-29.724
1.005,-0.844,0.579,-195.190,-17.944,-35.767
0.868,-0.666,0.580,-192.627,-7.874,-35.706
0.699,-0.499,0.580,-192.017,-0.854,-29.419
0.453,-0.347,0.591,-199.951,3.052,-19.470
0.302,-0.245,0.631,-222.046,1.587,-8.423
0.169,-0.185,0.673,-254.395,-6.470,0.977
0.075,-0.200,0.686,-290.955,-16.541,8.667
0.101,-0.241,0.737,-326.904,-23.071,11.108
0.011,-0.214,0.780,-352.844,-26.978,5.737
-0.161,-0.223,0.729,-369.202,-28.870,-3.540
-0.341,-0.155,0.601,-389.038,-25.757,-12.756
-0.475,-0.034,0.556,-414.612,-19.653,-18.799
-0.646,0.070,0.497,-441.650,-13.000,-17.151
-0.663,0.129,0.502,-470.886,-9.705,-9.705
-0.598,0.154,0.575,-498.047,-12.695,-7.874
-0.564,0.181,0.660,-519.714,-11.902,-14.709
-0.689,0.251,0.735,-529.358,-0.671,-26.550
-0.809,0.342,0.801,-526.123,12.451,-38.696
-0.905,0.473,0.859,-517.212,15.564,-48.889
-1.084,0.660,0.926,-505.554,5.188,-57.129
-1.198,0.789,0.956,-496.155,-8.667,-57.800
-1.219,0.801,0.895,-491.577,-25.513,-48.462
-1.190,0.798,0.804,-482.056,-50.537,-37.231
-1.162,0.829,0.693,-462.280,-77.515,-30.151
-1.128,0.844,0.574,-430.420,-97.107,-24.841
-1.122,0.815,0.487,-385.803,-108.521,-19.714
-1.176,0.755,0.433,-335.693,-113.525,-20.752
-1.210,0.727,0.399,-288.269,-115.295,-28.992
-1.223,0.754,0.370,-251.160,-119.324,-41.260
-1.230,0.864,0.366,-224.915,-127.014,-53.406
-1.194,0.955,0.342,-204.285,-139.343,-57.007
-1.167,1.031,0.299,-185.730,-154.846,-50.720
-1.020,1.085,0.220,-163.940,-168.762,-40.161
-0.913,1.119,0.143,-139.465,-174.744,-31.677
-0.872,1.138,0.052,-113.281,-166.870,-28.625
-0.841,1.130,-0.041,-86.975,-148.254,-26.917
-0.820,1.137,-0.070,-62.012,-129.700,-24.597
-0.805,1.124,-0.085,-40.894,-112.183,-18.555
-0.782,1.101,-0.101,-26.367,-91.370,-13.123
-0.752,1.084,-0.091,-21.423,-72.510,-10.315
-0.746,1.101,-0.082,-22.949,-59.265,-11.780
-0.716,1.149,-0.054,-25.330,-49.438,-15.259
-0.710,1.181,-0.005,-24.109,-46.326,-12.939
-0.705,1.136,0.065,-17.212,-49.316,-3.357
-0.710,1.054,0.103,-8.789,-54.871,10.254
-0.722,0.957,0.112,-2.625,-62.256,21.912
-0.685,0.893,0.092,1.282,-71.045,26.001
-0.612,0.856,0.053,2.258,-77.881,24.414
-0.560,0.849,0.001,0.366,-79.163,20.813
-0.514,0.867,-0.048,-1.709,-75.012,16.113
-0.473,0.932,-0.094,-1.770,-68.359,11.902
-0.435,0.979,-0.110,-0.793,-59.814,10.437
-0.433,0.991,-0.095,0.671,-48.401,12.451
-0.453,0.982,-0.049,2.869,-37.964,15.930

-1.234,1.194,-0.221,57.495,85.938,9.705
-1.290,1.217,-0.148,99.243,97.290,22.278
-1.368,1.181,-0.075,152.222,104.797,42.725
-1.445,1.129,-0.017,205.994,109.253,64.636
-1.515,1.096,0.025,248.901,111.877,82.458
-1.583,1.094,0.066,278.137,111.938,94.727
-1.616,1.090,0.078,296.021,109.741,102.234
-1.605,1.073,0.084,307.800,105.896,108.643
-1.584,1.016,0.052,319.336,103.027,115.295
-1.612,0.942,0.023,338.135,102.112,123.230
-1.599,0.897,-0.025,370.117,103.943,132.141
-1.591,0.850,-0.090,410.095,109.741,143.677
-1.731,0.762,-0.132,448.547,122.681,154.785
-1.778,0.694,-0.153,481.934,143.188,162.476
-1.726,0.633,-0.115,505.005,165.710,162.659
-1.669,0.515,-0.031,516.479,189.514,150.574
-1.673,0.487,0.102,529.114,208.374,133.728
-1.788,0.445,0.196,558.167,211.853,130.493
-1.937,0.441,0.202,599.792,205.139,146.179
-2.064,0.441,0.171,645.508,192.749,160.461
-2.205,0.510,0.275,671.387,174.683,154.907
-2.362,0.673,0.485,663.025,147.522,132.629
-2.382,0.761,0.674,621.765,109.314,106.995
-2.351,0.716,0.726,555.725,66.467,88.745
-2.186,0.513,0.582,472.473,18.921,84.412
-1.875,0.059,0.202,385.254,-21.545,90.515
-1.444,-0.359,-0.298,303.772,-57.739,89.844
-0.945,-0.652,-0.778,255.249,-83.008,77.332
-0.202,-0.831,-1.168,261.841,-86.487,68.054
0.772,-1.009,-1.347,318.542,-73.730,77.698
1.733,-1.120,-1.325,380.676,-42.358,94.482
2.595,-1.297,-1.091,396.423,2.686,101.563
3.341,-1.317,-0.680,326.782,46.143,87.708
4.000,-1.314,-0.452,194.458,78.918,65.613
4.000,-1.288,-0.415,58.105,116.577,49.988
4.000,-1.368,-0.059,-35.156,184.937,36.987
4.000,-1.216,0.493,-81.177,295.227,9.155
4.000,-0.515,1.221,-92.957,412.781,-47.241
3.529,0.332,2.081,-68.115,463.074,-92.102
2.218,0.896,2.782,1.892,413.208,-89.417
1.245,1.000,3.049,90.515,296.936,-34.607
0.652,0.652,2.811,136.719,152.100,38.757
0.608,-0.037,2.140,100.220,3.601,86.670
0.899,-0.806,1.124,-1.770,-123.108,88.135
1.358,-1.400,0.119,-102.173,-206.787,62.500
1.657,-1.745,-0.695,-140.686,-226.807,39.551
1.658,-1.820,-1.148,-112.183,-187.317,31.311
1.454,-1.632,-1.158,-45.776,-125.366,27.954
1.296,-1.290,-0.891,5.615,-70.435,21.667
1.180,-1.000,-0.529,12.207,-35.889,14.587
1.193,-0.866,-0.207,-24.292,-19.287,7.996
1.254,-0.855,0.028,-83.496,-15.320,0.366
1.300,-0.922,0.202,-136.658,-18.921,-3.784
1.360,-1.046,0.346,-165.955,-25.879,-3.357
1.397,-1.128,0.444,-173.218,-36.011,-1.404
1.441,-1.168,0.508,-165.588,-46.875,0.122
1.466,-1.160,0.507,-153.015,-56.946,-1.282
1.450,-1.096,0.482,-142.456,-62.256,-5.676
1.372,-1.008,0.456,-135.742,-61.707,-12.146
1.234,-0.933,0.451,-135.254,-56.458,-19.531
1.069,-0.833,0.508,-141.785,-49.805,-26.794
0.794,-0.695,0.550,-150.757,-45.654,-30.945
0.453,-0.582,0.575,-162.659,-43.884,-27.466
0.261,-0.515,0.581,-178.833,-46.570,-16.541
0.132,-0.425,0.579,-199.097,-51.331,-3.967
0.060,-0.359,0.579,-223.206,-54.993,7.629
0.006,-0.386,0.593,-254.822,-52.856,18.372
-0.008,-0.492,0.582,-290.100,-40.344,20.630
-0.085,-0.493,0.577,-318.542,-21.851,5.920
-0.408,-0.404,0.563,-321.655,-3.662,-18.250
-0.654,-0.241,0.617,-300.598,13.245,-39.917
-0.836,-0.121,0.709,-262.939,19.775,-49.988
-0.859,-0.026,0.805,-225.952,17.273,-47.852
-0.814,0.023,0.888,-203.552,13.611,-42.664
-0.726,0.094,0.983,-205.933,13.306,-41.504
-0.720,0.182,1.026,-231.018,13.489,-45.227
-0.722,0.274,1.049,-270.020,12.939,-49.438
-0.729,0.324,1.035,-310.730,10.132,-50.781
-0.643,0.332,1.004,-342.651,5.920,-54.565
-0.640,0.323,1.000,-357.544,0.671,-62.378
-0.648,0.297,1.020,-355.774,-1.038,-69.031
-0.677,0.258,1.086,-340.332,-0.671,-71.533
-0.749,0.237,1.132,-319.519,-0.610,-66.650
-0.787,0.247,1.188,-299.622,-4.150,-58.472
-0.817,0.281,1.217,-287.415,-16.235,-52.307
-0.833,0.331,1.210,-286.133,-33.386,-48.828
-0.787,0.388,1.202,-294.312,-55.054,-50.720
-0.727,0.442,1.162,-308.533,-78.735,-59.509
-0.647,0.458,1.034,-322.693,-95.825,-75.195
-0.568,0.456,0.835,-327.698,-96.924,-98.450
-0.557,0.494,0.645,-318.787,-83.008,-125.488
-0.601,0.646,0.541,-296.265,-71.472,-143.616
-0.656,0.823,0.532,-259.460,-67.139,-143.921
-0.689,0.963,0.567,-215.637,-66.772,-125.977
-0.715,1.017,0.614,-175.537,-74.341,-93.506
-0.707,0.994,0.619,-146.118,-87.524,-61.401
-0.719,0.941,0.596,-130.859,-101.746,-44.373
-0.700,0.907,0.550,-131.348,-115.051,-44.128
-0.615,0.914,0.484,-143.372,-126.038,-56.458
-0.507,0.955,0.333,-161.072,-127.441,-73.730
-0.454,1.024,0.160,-177.490,-115.845,-81.909
-0.419,1.069,0.028,-184.937,-97.046,-76.660
-0.396,1.062,0.001,-180.664,-78.186,-62.256
-0.423,1.038,0.107,-170.044,-64.331,-44.678
-0.477,0.973,0.246,-156.189,-57.556,-25.696
-0.510,0.880,0.352,-139.404,-58.289,-9.705
-0.531,0.838,0.409,-125.183,-67.322,-3.784
-0.533,0.855,0.421,-114.563,-80.994,-7.263
-0.519,0.900,0.395,-107.056,-96.497,-14.343
-0.443,0.948,0.331,-101.807,-110.779,-18.005
-0.382,0.988,0.197,-98.877,-116.760,-18.311
-0.341,0.993,0.063,-98.083,-110.962,-17.151
-0.354,0.972,-0.020,-97.961,-98.877,-15.991
-0.335,0.987,-0.065,-96.313,-83.923,-13.794
-0.341,1.004,-0.025,-89.172,-69.519,-13.733
-0.399,1.054,0.057,-73.486,-57.678,-11.780
-0.467,1.102,0.148,-49.988,-54.626,-2.686
-0.511,1.076,0.186,-25.574,-59.875,14.587
-0.520,1.037,0.185,-7.507,-68.726,30.396

-1.186,1.268,0.235,309.387,134.460,160.095
-1.205,1.214,0.291,317.505,129.883,178.467
-1.212,1.097,0.331,308.228,123.718,188.538
-1.187,0.935,0.329,289.612,115.601,187.439
-1.163,0.823,0.298,273.865,107.910,176.941
-1.140,0.804,0.250,272.156,99.731,169.434
-1.112,0.777,0.196,293.091,92.590,178.528
-1.139,0.751,0.143,337.524,89.355,202.087
-1.221,0.693,0.116,395.935,91.492,232.727
-1.289,0.610,0.084,454.041,95.337,261.536
-1.344,0.533,0.116,496.155,100.464,277.710
-1.355,0.416,0.208,516.541,104.431,278.442
-1.357,0.254,0.234,515.076,105.103,265.320
-1.433,0.107,0.225,499.390,109.070,238.586
-1.631,-0.009,0.264,485.229,114.441,200.928
-1.957,-0.079,0.265,475.708,110.291,166.382
-2.162,-0.087,0.211,473.572,97.046,139.221
-2.244,-0.131,0.110,475.281,74.707,116.150
-2.249,-0.178,-0.082,473.999,46.692,98.999
-2.262,-0.297,-0.390,464.905,19.653,89.844
-2.211,-0.576,-0.907,439.209,-0.610,86.548
-1.952,-0.873,-1.595,397.522,-9.155,75.989
-1.297,-1.104,-2.132,359.985,-2.319,55.481
-0.531,-1.249,-2.310,352.600,28.198,43.884
0.226,-1.271,-2.104,365.295,77.271,49.072
1.226,-1.418,-1.599,368.347,117.432,55.115
2.337,-1.713,-1.255,344.910,141.846,54.199
3.508,-1.926,-1.016,308.533,167.969,36.743
4.000,-2.112,-0.665,274.719,213.745,22.034
4.000,-2.376,-0.133,234.131,275.513,21.118
4.000,-2.382,0.768,162.170,358.887,14.954
4.000,-2.087,1.780,48.584,442.139,-9.521
4.000,-1.213,2.736,-65.552,493.835,-56.152
3.993,0.303,3.262,-119.568,492.737,-128.479
2.923,1.679,3.602,-82.825,422.729,-166.992
1.814,2.178,3.973,31.616,312.866,-104.492
0.958,1.839,3.945,123.962,180.176,23.804
0.830,0.968,3.257,82.764,24.414,111.206
1.319,-0.030,2.228,-80.933,-135.437,120.483
1.935,-1.028,1.147,-244.751,-250.671,108.948
2.414,-1.935,0.265,-309.448,-300.903,105.469
2.498,-2.374,-0.274,-265.137,-300.537,101.563
2.344,-2.333,-0.516,-147.949,-275.574,87.158
2.132,-1.964,-0.564,-20.996,-252.808,64.575
1.873,-1.525,-0.602,60.791,-235.840,38.147
1.585,-1.183,-0.707,74.280,-216.980,13.672
1.353,-0.997,-0.812,28.381,-195.251,-6.226
1.165,-0.998,-0.863,-46.387,-167.114,-20.264
1.010,-1.051,-0.841,-119.995,-131.104,-30.884
0.870,-1.076,-0.752,-169.922,-92.041,-38.269
0.733,-1.070,-0.573,-191.223,-54.504,-41.016
0.547,-1.026,-0.358,-189.819,-24.292,-41.321
0.391,-0.965,-0.162,-177.795,-6.287,-41.931
0.266,-0.876,-0.001,-163.696,-0.305,-41.870
0.166,-0.800,0.068,-148.193,-0.793,-41.016
0.182,-0.679,0.087,-136.841,-2.258,-40.955
-0.075,-0.704,0.119,-130.249,-1.648,-44.312
0.003,-0.596,0.155,-138.794,1.343,-31.311
0.004,-0.596,0.229,-152.649,3.357,-21.790
-0.030,-0.576,0.280,-170.105,14.343,-19.409
-0.203,-0.484,0.396,-186.035,28.442,-23.071
-0.370,-0.427,0.512,-192.932,41.077,-27.405
-0.527,-0.418,0.599,-194.336,49.683,-27.039
-0.547,-0.400,0.655,-196.228,51.819,-26.733
-0.543,-0.390,0.693,-198.975,48.706,-29.846
-0.439,-0.392,0.717,-202.576,46.814,-36.743
-0.330,-0.377,0.782,-206.787,48.767,-45.349
-0.252,-0.332,0.849,-211.853,55.298,-52.429
-0.243,-0.226,0.934,-219.727,65.857,-58.777
-0.284,-0.115,0.971,-233.948,74.951,-62.500
-0.280,-0.015,0.996,-258.972,81.848,-63.721
-0.250,0.081,1.061,-291.321,88.318,-66.406
-0.268,0.187,1.161,-320.923,92.773,-72.571
-0.322,0.252,1.274,-338.074,90.027,-76.050
-0.364,0.310,1.370,-338.745,75.439,-75.378
-0.445,0.375,1.435,-321.472,49.500,-72.021
-0.521,0.427,1.437,-293.640,14.526,-64.758
-0.487,0.501,1.336,-268.677,-22.827,-53.101
-0.402,0.541,1.185,-253.418,-53.040,-38.513
-0.306,0.551,1.046,-252.808,-73.486,-27.588
-0.245,0.517,0.924,-269.165,-77.454,-27.893
-0.227,0.489,0.850,-300.537,-59.265,-40.527
-0.261,0.500,0.887,-334.473,-31.189,-63.232
-0.377,0.561,1.004,-361.450,-7.751,-89.050
-0.493,0.714,1.131,-376.892,5.188,-105.042
-0.617,0.881,1.222,-380.432,3.235,-102.234
-0.700,1.003,1.282,-376.953,-18.494,-85.144
-0.662,0.999,1.251,-374.146,-58.533,-60.730
-0.512,0.897,1.115,-369.812,-102.173,-41.626
-0.374,0.764,0.880,-363.403,-130.798,-41.992
-0.330,0.698,0.650,-354.675,-137.573,-58.838
-0.340,0.765,0.412,-338.135,-126.892,-81.543
-0.333,0.901,0.260,-315.735,-112.244,-94.116
-0.389,1.025,0.182,-287.903,-103.577,-94.421
-0.407,1.147,0.176,-259.583,-96.375,-81.909
-0.428,1.211,0.220,-234.070,-89.539,-57.861
-0.481,1.229,0.313,-212.585,-88.440,-30.579
-0.546,1.176,0.383,-194.153,-98.145,-5.981
-0.547,1.075,0.400,-177.856,-115.051,14.954
-0.507,0.966,0.370,-163.879,-133.240,24.170
-0.401,0.900,0.263,-156.006,-143.494,18.433
-0.375,0.873,0.114,-153.381,-137.817,2.808
-0.372,0.905,-0.008,-152.161,-120.728,-12.085
-0.379,0.962,-0.095,-149.963,-102.783,-21.545
-0.372,1.022,-0.164,-145.752,-88.257,-23.254
-0.380,1.063,-0.188,-137.207,-76.904,-20.264
-0.395,1.082,-0.175,-122.314,-65.979,-14.343
-0.433,1.088,-0.150,-101.807,-57.678,-3.662
-0.460,1.057,-0.103,-78.247,-55.420,10.254
-0.480,1.000,-0.080,-55.664,-59.753,23.254
-0.482,0.926,-0.083,-37.231,-64.148,30.151
-0.482,0.869,-0.106,-23.010,-67.444,30.762
-0.458,0.837,-0.152,-11.536,-67.871,25.269
-0.416,0.832,-0.228,-2.197,-63.965,15.869
-0.397,0.850,-0.290,6.653,-53.650,7.019
-0.371,0.900,-0.306,15.015,-39.673,0.977
-0.354,0.974,-0.265,21.057,-24.719,-2.197
-0.372,1.030,-0.186,24.170,-12.207,-1.404
-0.394,1.043,-0.100,26.550,-6.409,4.517

-1.059,1.362,-0.111,139.648,65.247,89.600
-1.158,1.327,-0.099,162.048,72.083,106.934
-1.237,1.267,-0.104,199.646,76.111,131.958
-1.292,1.208,-0.107,246.948,80.627,158.691
-1.333,1.148,-0.104,296.509,88.806,180.847
-1.359,1.095,-0.036,339.355,100.159,197.388
-1.334,1.065,0.050,374.268,110.718,210.266
-1.321,1.026,0.131,402.466,122.070,224.976
-1.302,0.917,0.192,419.739,133.484,243.225
-1.282,0.748,0.200,425.964,143.066,261.169
-1.325,0.513,0.163,426.453,152.527,275.513
-1.472,0.328,0.087,427.429,167.603,277.344
-1.527,0.253,0.012,430.847,182.800,264.465
-1.536,0.260,0.026,435.242,194.641,247.253
-1.588,0.253,0.097,442.505,204.712,238.770
-1.609,0.203,0.204,452.881,212.891,240.112
-1.701,0.127,0.398,461.670,213.684,239.075
-1.857,0.076,0.587,465.149,205.261,230.408
-2.049,0.107,0.742,464.600,188.782,207.397
-2.191,0.277,0.818,459.412,161.499,187.439
-2.357,0.428,0.906,458.313,130.310,181.030
-2.441,0.426,0.965,461.060,89.966,186.035
-2.507,0.401,0.846,447.876,39.551,188.293
-2.588,0.319,0.521,411.072,-13.550,173.340
-2.544,0.202,-0.011,359.253,-67.993,145.813
-2.279,0.034,-0.653,317.444,-118.042,124.817
-1.870,-0.223,-1.245,321.655,-138.428,121.582
-1.259,-0.392,-1.586,367.920,-126.953,125.305
-0.654,-0.504,-1.683,417.603,-81.848,138.367
0.012,-0.624,-1.601,422.729,-18.799,151.611
0.755,-0.826,-1.221,377.747,38.147,154.846
1.691,-1.228,-0.756,311.646,76.782,162.292
2.759,-1.824,-0.520,232.666,99.487,164.124
3.659,-2.295,-0.302,153.503,129.822,149.719
4.000,-2.619,0.092,106.445,180.969,131.165
4.000,-2.697,0.632,101.196,232.239,107.849
4.000,-2.384,1.192,103.760,266.296,77.637
4.000,-1.818,1.555,81.055,292.297,47.791
4.000,-0.930,1.762,30.701,318.909,-2.197
4.000,0.149,1.948,-29.358,325.439,-70.313
3.206,1.143,1.947,-64.270,301.270,-127.075
2.281,1.658,1.926,-51.270,251.953,-123.657
1.488,1.592,1.864,-3.601,179.749,-57.861
1.043,1.047,1.589,26.672,80.627,11.536
1.088,0.335,1.076,-3.906,-25.818,44.800
1.305,-0.291,0.341,-83.496,-109.680,46.082
1.576,-0.719,-0.543,-161.377,-158.081,38.147
1.834,-0.992,-1.366,-198.853,-161.255,44.556
1.846,-1.198,-1.783,-191.956,-122.681,61.340
1.566,-1.326,-1.660,-162.109,-66.833,64.880
1.340,-1.386,-1.221,-137.329,-22.949,47.974
1.179,-1.359,-0.828,-124.268,4.089,26.550
1.092,-1.276,-0.504,-110.901,16.785,8.423
1.081,-1.270,-0.258,-96.619,13.000,-2.502
1.134,-1.237,-0.130,-93.750,-0.916,-10.071
1.299,-1.190,-0.051,-104.004,-18.127,-23.743
1.412,-1.088,-0.103,-124.451,-34.973,-43.762
1.460,-0.961,-0.176,-148.376,-43.518,-61.646
1.477,-0.839,-0.197,-166.626,-45.288,-71.655
1.401,-0.703,-0.181,-177.307,-39.551,-72.998
1.301,-0.635,-0.109,-183.594,-30.884,-65.735
1.105,-0.571,-0.004,-190.979,-21.790,-57.922
0.878,-0.495,0.096,-201.721,-10.803,-52.612
0.643,-0.385,0.259,-212.219,-4.517,-45.898
0.369,-0.353,0.412,-218.262,-7.263,-34.546
0.232,-0.376,0.531,-224.487,-12.573,-22.034
0.105,-0.363,0.613,-236.023,-18.982,-17.273
0.093,-0.322,0.681,-252.930,-26.917,-21.973
-0.008,-0.205,0.659,-273.987,-34.241,-31.799
-0.204,-0.078,0.559,-297.668,-27.405,-40.405
-0.258,0.063,0.497,-325.623,-7.446,-48.218
-0.338,0.262,0.553,-357.483,11.475,-53.223
-0.503,0.437,0.685,-386.414,27.710,-51.086
-0.554,0.524,0.882,-415.222,36.804,-39.978
-0.543,0.555,1.102,-445.251,30.823,-25.452
-0.582,0.577,1.273,-470.642,12.207,-8.972
-0.665,0.541,1.392,-489.563,-13.062,4.211
-0.750,0.502,1.434,-511.475,-42.969,12.146
-0.816,0.490,1.370,-540.955,-74.585,10.010
-0.828,0.481,1.289,-572.754,-94.971,-12.207
-0.853,0.492,1.118,-601.440,-94.971,-47.852
-0.905,0.470,0.883,-614.441,-78.003,-87.219
-0.924,0.480,0.657,-599.304,-65.491,-118.530
-0.978,0.545,0.495,-551.453,-73.669,-134.888
-0.985,0.696,0.364,-481.750,-90.332,-133.789
-0.897,0.898,0.263,-403.259,-103.271,-114.014
-0.854,1.072,0.215,-332.764,-113.586,-86.060
-0.861,1.160,0.212,-285.156,-122.314,-63.660
-0.871,1.193,0.215,-261.597,-131.104,-54.321
-0.854,1.170,0.225,-256.714,-141.724,-55.237
-0.807,1.130,0.216,-264.282,-153.076,-63.904
-0.764,1.087,0.156,-270.569,-158.875,-75.745
-0.730,1.132,0.086,-265.015,-155.029,-82.703
-0.705,1.242,0.014,-245.728,-145.264,-75.195
-0.679,1.335,-0.041,-216.431,-134.521,-52.856
-0.695,1.373,-0.061,-180.786,-126.099,-24.048
-0.716,1.333,-0.059,-150.391,-120.789,-0.305
-0.719,1.255,-0.035,-127.502,-114.624,10.742
-0.734,1.207,-0.001,-115.295,-108.459,10.803
-0.729,1.162,0.024,-106.262,-99.731,4.578
-0.716,1.128,0.044,-97.717,-91.003,-1.770
-0.711,1.091,0.052,-89.417,-83.496,-4.700
-0.681,1.101,0.094,-81.116,-77.759,-5.066
-0.655,1.081,0.088,-76.233,-76.355,-2.808
-0.613,1.064,0.057,-72.510,-74.951,2.808
-0.586,1.044,0.013,-65.552,-74.524,7.324
-0.554,1.048,-0.013,-56.396,-73.547,9.888
-0.533,1.055,-0.027,-46.265,-69.519,10.193
-0.519,1.042,-0.036,-36.438,-61.279,9.216
-0.530,1.016,-0.018,-28.809,-50.903,9.766
-0.545,0.993,0.008,-23.804,-41.321,9.216
-0.557,0.979,0.042,-20.813,-35.095,6.165
-0.568,0.958,0.076,-16.663,-33.569,0.366
-0.569,0.972,0.083,-11.108,-35.828,-6.226
-0.556,1.010,0.069,-2.014,-41.504,-12.024
-0.513,1.048,0.054,8.972,-48.584,-14.526
-0.460,1.076,0.039,16.296,-55.786,-9.827
-0.414,1.087,0.006,18.494,-59.082,-0.854
-0.353,1.083,-0.022,14.526,-56.274,9.338
