aX,aY,aZ,gX,gY,gZ
-2.347,0.245,0.499,31.250,62.073,162.659
-2.841,0.499,0.537,32.593,72.632,179.871
-3.073,0.804,0.663,36.621,79.407,204.590
-3.454,1.034,0.892,43.762,81.055,236.267
-3.502,1.223,1.144,63.354,79.956,270.691
-3.583,1.360,1.373,102.234,72.205,313.049
-3.517,1.423,1.517,143.921,49.561,356.628
-3.284,1.385,1.504,174.988,8.179,397.278
-2.964,1.279,1.344,189.087,-40.833,428.833
-2.544,1.264,1.067,186.462,-91.309,443.726
-2.146,1.313,0.799,175.903,-132.874,448.792
-1.679,1.359,0.537,170.471,-164.429,455.444
-1.203,1.446,0.440,187.866,-181.396,467.651
-0.905,1.462,0.550,230.164,-171.875,485.229
-0.657,1.324,0.691,273.926,-154.297,502.014
-0.389,1.034,0.808,297.058,-147.766,507.568
-0.001,0.742,0.882,296.021,-146.362,495.972
0.487,0.546,0.895,279.175,-148.437,469.971
0.976,0.341,0.914,243.469,-154.846,445.007
1.626,0.192,0.928,204.590,-160.156,428.833
2.033,0.195,1.158,202.026,-135.071,420.715
2.263,0.163,1.533,230.896,-73.975,422.485
2.509,0.020,1.905,249.573,-14.709,413.940
2.688,-0.039,2.289,233.154,40.771,371.399
2.782,0.017,2.676,183.777,87.219,291.443
2.710,0.117,2.920,124.207,104.919,191.101
2.607,0.321,2.946,78.918,78.674,93.079
2.572,0.701,2.759,62.866,13.000,12.329
2.628,1.010,2.336,61.340,-62.927,-34.058
2.677,1.101,1.764,48.096,-123.169,-55.847
2.655,1.052,1.147,9.644,-158.997,-69.885
2.617,0.898,0.594,-43.762,-174.988,-80.322
2.530,0.691,0.185,-86.853,-169.434,-87.219
2.347,0.520,-0.008,-104.370,-141.357,-90.820
2.104,0.399,-0.013,-94.177,-103.333,-87.830
1.829,0.279,0.074,-62.561,-70.374,-79.712
1.544,0.202,0.246,-30.396,-45.288,-76.050
1.263,0.105,0.403,-16.663,-30.090,-81.360
1.052,-0.029,0.455,-28.992,-26.550,-94.604
0.890,-0.151,0.401,-59.204,-26.672,-115.417
0.764,-0.262,0.279,-95.276,-21.362,-137.085
0.651,-0.352,0.200,-126.709,-7.263,-155.640
0.509,-0.369,0.160,-146.240,15.869,-170.227
0.404,-0.361,0.171,-156.250,39.307,-178.223
0.167,-0.335,0.304,-160.706,61.401,-185.059
0.015,-0.370,0.414,-165.405,80.444,-191.345
-0.106,-0.366,0.565,-172.119,91.370,-205.383
-0.214,-0.347,0.759,-177.368,99.792,-226.807
-0.379,-0.377,0.908,-183.167,104.614,-249.084
-0.469,-0.424,1.000,-189.087,101.990,-272.461
-0.583,-0.418,1.078,-188.965,101.135,-297.119
-0.723,-0.299,1.134,-181.335,104.980,-315.308
-0.878,-0.084,1.185,-169.434,108.582,-320.923
-1.101,0.114,1.252,-158.936,109.375,-313.904
-1.314,0.168,1.344,-148.743,102.356,-295.715
-1.459,0.125,1.375,-133.118,85.266,-276.428
-1.489,0.058,1.359,-115.784,63.354,-264.404
-1.502,-0.037,1.308,-101.257,47.180,-259.338
-1.497,-0.130,1.253,-94.727,37.842,-260.986
-1.472,-0.217,1.201,-96.741,30.579,-268.188
-1.428,-0.286,1.164,-99.976,25.146,-276.001
-1.369,-0.312,1.123,-95.093,21.790,-281.189
-1.289,-0.281,1.101,-78.674,19.958,-284.058
-1.225,-0.184,1.078,-57.678,19.409,-283.630
-1.184,-0.070,1.079,-44.922,16.357,-279.724
-1.131,0.005,1.089,-44.922,6.897,-274.597
-1.106,0.034,1.100,-50.598,-5.737,-269.348
-1.063,0.040,1.056,-54.199,-21.790,-265.930
-0.999,0.061,0.965,-52.063,-37.598,-264.954
-0.977,0.063,0.899,-43.823,-46.082,-262.817
-0.952,0.085,0.829,-32.715,-51.208,-257.690
-0.942,0.090,0.767,-21.362,-52.795,-250.977
-0.955,0.087,0.723,-13.306,-52.307,-244.019
-0.947,0.095,0.698,-11.353,-51.453,-239.197
-0.926,0.159,0.690,-15.076,-49.866,-236.267
-0.916,0.230,0.685,-23.499,-46.997,-231.384
-0.908,0.288,0.659,-32.837,-45.288,-222.168
-0.921,0.280,0.660,-36.133,-42.725,-207.825
-0.923,0.238,0.664,-28.564,-41.687,-190.430
-0.919,0.209,0.650,-11.963,-40.710,-172.791
-0.916,0.195,0.634,2.441,-38.574,-157.166
-0.905,0.178,0.625,10.498,-35.889,-143.982
-0.876,0.171,0.622,11.169,-32.776,-133.423
-0.851,0.167,0.615,5.737,-29.236,-124.268
-0.814,0.165,0.618,-0.977,-26.001,-113.098
-0.798,0.154,0.684,-4.761,-21.851,-97.717
-0.791,0.097,0.755,-5.493,-20.203,-78.430
-0.788,0.031,0.807,-2.136,-23.071,-59.387
-0.780,0.002,0.827,4.944,-26.917,-45.715
-0.776,-0.010,0.833,14.038,-28.564,-35.645
-0.775,-0.002,0.816,21.851,-28.809,-28.748
-0.773,0.038,0.779,24.841,-27.954,-26.001
-0.776,0.093,0.756,22.766,-26.245,-25.879
-0.773,0.138,0.736,19.409,-23.560,-25.085
-0.776,0.163,0.714,16.663,-20.752,-22.705
-0.780,0.176,0.712,15.930,-18.433,-19.348
-0.778,0.157,0.720,18.250,-17.273,-14.587
-0.770,0.121,0.734,23.743,-16.541,-8.972
-0.766,0.097,0.757,30.579,-15.320,-6.470
-0.758,0.102,0.770,35.095,-14.221,-7.629
-0.736,0.134,0.763,33.813,-13.977,-11.230
-0.720,0.158,0.741,26.062,-13.550,-15.686
-0.693,0.177,0.714,16.785,-11.169,-20.020
-0.671,0.198,0.700,11.353,-7.080,-23.254
-0.652,0.212,0.692,11.353,-2.258,-24.780
-0.637,0.231,0.688,12.817,2.197,-25.818
-0.625,0.263,0.715,13.672,6.653,-26.917
-0.624,0.296,0.749,12.878,8.789,-25.940
-0.623,0.325,0.788,9.949,6.042,-22.400
-0.630,0.323,0.794,5.920,-0.977,-17.029
-0.623,0.288,0.776,2.625,-9.949,-10.620
-0.610,0.264,0.728,1.770,-18.738,-5.920
-0.588,0.247,0.668,2.502,-23.315,-3.052
-0.571,0.237,0.608,2.747,-23.010,-1.099
-0.558,0.226,0.563,0.793,-18.921,-0.549
-0.555,0.215,0.539,-3.113,-12.878,-0.427
-0.564,0.210,0.557,-7.629,-6.287,-1.160
-0.570,0.206,0.590,-10.010,-1.465,-1.404
-0.602,0.201,0.644,-10.010,0.366,-0.244

-1.830,0.492,0.449,-0.610,63.049,203.430
-2.006,0.576,0.536,-6.714,76.294,223.450
-2.225,0.744,0.688,-7.874,80.811,246.887
-2.452,0.916,0.813,-4.272,72.693,278.259
-2.683,1.053,0.870,1.709,56.702,315.491
-2.855,1.204,0.932,10.864,43.335,351.135
-2.923,1.300,1.119,24.902,38.696,384.033
-2.874,1.363,1.325,41.016,33.386,416.504
-2.795,1.406,1.511,55.908,20.203,447.693
-2.584,1.395,1.622,69.702,-8.423,476.318
-2.269,1.370,1.617,83.740,-47.913,498.291
-2.052,1.380,1.590,97.595,-87.708,513.489
-1.870,1.394,1.464,110.107,-125.305,521.790
-1.587,1.422,1.298,116.760,-163.330,521.606
-1.251,1.431,1.081,116.394,-195.618,516.357
-0.892,1.391,0.931,113.525,-211.670,511.719
-0.542,1.308,0.839,120.911,-217.834,510.681
-0.294,1.195,0.786,143.860,-216.370,511.597
0.001,1.153,0.734,176.941,-208.130,508.423
0.364,1.152,0.773,201.477,-201.294,498.901
0.759,1.068,0.734,207.825,-194.763,482.605
1.215,0.895,0.690,201.111,-181.213,463.562
1.368,0.687,0.749,197.510,-149.780,447.021
1.414,0.480,0.887,202.209,-103.821,431.580
1.561,0.374,1.055,205.078,-66.162,411.926
1.796,0.359,1.148,199.280,-39.001,386.047
2.049,0.274,1.209,180.359,-20.630,357.117
2.257,0.101,1.336,148.193,-8.667,319.763
2.301,-0.080,1.507,118.103,11.719,263.916
2.210,-0.016,1.744,101.501,35.278,192.383
2.117,0.125,1.937,93.750,47.424,122.131
2.143,0.378,1.945,78.857,39.368,58.838
2.227,0.624,1.922,51.331,20.996,5.859
2.134,0.762,1.801,14.282,-1.465,-35.156
2.037,0.657,1.479,-24.475,-30.640,-68.298
1.981,0.457,1.031,-61.951,-58.044,-99.915
1.910,0.334,0.658,-89.600,-66.956,-129.517
1.832,0.227,0.373,-100.342,-59.143,-145.447
1.713,0.114,0.260,-95.032,-36.804,-148.315
1.563,0.007,0.293,-79.834,-6.042,-144.653
1.394,-0.116,0.383,-63.354,23.071,-141.418
1.209,-0.220,0.530,-56.213,44.678,-146.851
1.032,-0.262,0.664,-65.491,56.335,-161.438
0.891,-0.265,0.713,-88.806,60.120,-178.528
0.750,-0.295,0.691,-117.981,64.819,-192.505
0.595,-0.370,0.625,-145.325,72.815,-203.247
0.459,-0.432,0.580,-162.964,84.534,-213.623
0.320,-0.447,0.597,-169.189,101.379,-225.586
0.207,-0.435,0.677,-164.978,120.239,-238.281
0.092,-0.363,0.807,-154.236,139.465,-252.075
-0.061,-0.231,1.004,-138.977,155.334,-264.282
-0.246,-0.128,1.199,-123.108,163.208,-268.921
-0.455,-0.052,1.330,-112.366,157.593,-267.517
-0.703,-0.018,1.343,-109.924,144.531,-264.709
-0.921,-0.024,1.284,-115.112,129.822,-264.099
-1.051,-0.045,1.213,-124.939,115.784,-266.479
-1.103,-0.130,1.164,-131.470,106.018,-268.982
-1.131,-0.252,1.131,-127.441,104.797,-266.785
-1.129,-0.322,1.171,-110.413,111.572,-263.184
-1.125,-0.329,1.277,-84.778,122.375,-259.460
-1.131,-0.284,1.369,-59.937,131.714,-256.287
-1.158,-0.183,1.452,-47.363,133.118,-255.920
-1.230,-0.098,1.488,-51.758,122.314,-257.568
-1.257,-0.087,1.386,-68.726,97.778,-258.545
-1.208,-0.122,1.200,-87.036,69.336,-262.146
-1.145,-0.122,1.028,-96.924,50.232,-270.264
-1.108,-0.070,0.909,-95.642,42.114,-278.992
-1.067,0.008,0.849,-85.022,39.612,-283.569
-1.048,0.084,0.823,-70.251,40.100,-281.982
-1.048,0.107,0.795,-57.434,42.053,-274.414
-1.079,0.105,0.800,-49.133,47.119,-262.451
-1.112,0.075,0.846,-43.030,52.368,-249.634
-1.138,0.022,0.890,-41.077,51.941,-238.403
-1.157,-0.028,0.903,-42.542,46.631,-231.628
-1.168,-0.064,0.901,-46.753,36.499,-228.027
-1.138,-0.088,0.883,-49.744,23.254,-226.440
-1.113,-0.088,0.863,-47.058,11.536,-225.342
-1.081,-0.085,0.841,-38.940,3.357,-224.426
-1.046,-0.071,0.829,-29.175,-1.770,-225.403
-1.014,-0.019,0.836,-23.010,-2.258,-230.286
-0.996,0.102,0.864,-24.414,-2.014,-236.084
-0.993,0.243,0.899,-35.217,-4.822,-235.962
-0.996,0.318,0.916,-46.814,-12.390,-227.051
-0.985,0.346,0.889,-51.880,-24.475,-212.158
-0.954,0.349,0.843,-46.082,-37.476,-193.848
-0.920,0.318,0.774,-33.264,-47.546,-175.232
-0.893,0.293,0.707,-20.020,-54.382,-159.668
-0.854,0.256,0.652,-9.705,-57.617,-147.278
-0.826,0.201,0.619,-3.723,-55.359,-137.085
-0.802,0.151,0.605,0.427,-48.767,-131.287
-0.784,0.166,0.613,2.686,-40.955,-127.808
-0.769,0.261,0.660,0.488,-35.034,-121.338
-0.769,0.333,0.724,-9.033,-33.447,-106.995
-0.751,0.332,0.792,-21.301,-36.133,-86.365
-0.735,0.275,0.822,-27.344,-40.344,-64.270
-0.713,0.200,0.842,-22.644,-42.969,-45.166
-0.707,0.111,0.863,-10.986,-42.053,-31.616
-0.714,0.065,0.894,0.854,-39.734,-25.024
-0.721,0.041,0.891,7.263,-39.001,-24.902
-0.701,0.029,0.869,4.578,-40.161,-28.259
-0.713,0.053,0.847,-3.357,-41.687,-32.959
-0.692,0.095,0.822,-11.597,-40.894,-33.630
-0.699,0.126,0.803,-15.869,-38.879,-29.480
-0.681,0.156,0.771,-14.771,-36.499,-19.226
-0.693,0.163,0.757,-7.874,-32.043,-6.165
-0.677,0.169,0.752,0.671,-27.893,7.019
-0.684,0.146,0.769,9.033,-21.179,17.273
-0.688,0.133,0.773,13.000,-14.648,22.217
-0.676,0.127,0.777,13.550,-9.827,22.949
-0.658,0.120,0.786,12.756,-6.470,20.691
-0.635,0.126,0.794,10.559,-5.127,16.296
-0.623,0.155,0.827,6.958,-4.517,10.986
-0.618,0.191,0.844,3.418,-5.859,6.653
-0.604,0.213,0.827,0.549,-10.132,4.150
-0.589,0.219,0.787,1.038,-15.381,4.395
-0.579,0.204,0.750,4.639,-18.372,6.348
-0.569,0.190,0.719,8.667,-19.104,8.972
-0.557,0.173,0.685,10.559,-18.433,9.827
-0.545,0.156,0.648,9.705,-16.724,9.644

-1.692,0.709,0.673,-11.780,46.875,129.700
-1.859,0.678,0.727,-12.878,45.166,165.710
-2.054,0.562,0.719,-10.620,43.884,202.332
-2.254,0.523,0.695,-4.639,45.044,232.239
-2.490,0.550,0.683,4.883,46.692,256.531
-2.840,0.644,0.614,16.724,50.049,280.396
-3.114,0.833,0.617,26.123,52.246,302.490
-3.148,1.023,0.776,25.696,51.880,324.707
-3.014,1.121,0.976,16.602,48.523,353.638
-2.836,1.211,1.203,12.817,39.429,389.465
-2.613,1.263,1.417,26.733,20.508,433.167
-2.418,1.320,1.534,59.204,-12.939,480.469
-2.233,1.357,1.503,97.168,-62.439,523.987
-1.988,1.336,1.286,123.718,-122.070,555.969
-1.747,1.260,0.943,132.690,-176.697,571.899
-1.446,1.133,0.550,128.174,-214.783,569.580
-1.155,1.055,0.224,118.652,-228.027,552.734
-1.075,1.100,0.028,113.464,-221.558,534.546
-0.716,1.163,-0.110,126.404,-205.811,515.747
-0.474,1.385,-0.069,148.193,-179.077,508.545
-0.246,1.536,0.293,181.030,-146.667,511.963
-0.006,1.550,0.605,213.928,-131.836,522.156
0.297,1.417,0.779,234.253,-136.780,529.419
0.749,1.178,0.704,225.098,-141.296,527.527
1.132,0.879,0.482,184.692,-128.174,512.390
1.537,0.595,0.390,123.840,-90.759,483.215
1.958,0.338,0.478,68.359,-33.447,446.289
2.271,0.081,0.697,35.217,31.616,405.945
2.485,-0.299,1.011,27.954,89.478,357.666
2.628,-0.331,1.575,56.458,140.869,287.231
2.685,-0.073,2.405,109.558,181.824,205.139
2.634,0.327,3.068,147.705,174.622,135.925
2.559,0.698,3.344,152.710,120.422,82.703
2.440,0.915,3.227,117.188,54.260,36.011
2.339,0.927,2.769,46.143,-8.667,-12.939
2.280,0.824,2.040,-44.006,-69.885,-64.819
2.274,0.666,1.248,-125.061,-117.493,-107.117
2.231,0.469,0.582,-165.283,-138.000,-130.066
2.145,0.291,0.169,-155.640,-127.625,-132.568
1.962,0.148,0.034,-104.614,-94.116,-122.131
1.721,0.020,0.078,-40.039,-51.697,-109.192
1.493,-0.070,0.187,3.113,-16.663,-103.943
1.260,-0.129,0.326,12.146,7.385,-110.413
1.072,-0.186,0.404,-10.376,21.667,-122.192
0.846,-0.232,0.412,-49.927,30.273,-135.132
0.606,-0.314,0.319,-92.834,39.612,-145.691
0.436,-0.404,0.262,-129.211,51.514,-155.579
0.260,-0.474,0.241,-153.137,69.458,-168.213
0.127,-0.485,0.256,-163.696,88.562,-185.059
0.053,-0.440,0.376,-165.771,105.591,-204.285
-0.002,-0.361,0.568,-158.813,123.474,-221.191
-0.096,-0.289,0.792,-147.705,139.893,-236.145
-0.213,-0.218,1.010,-145.447,149.658,-250.854
-0.522,-0.130,1.174,-156.189,152.222,-267.273
-0.858,-0.071,1.243,-182.129,146.790,-282.837
-1.059,-0.077,1.263,-218.018,130.554,-296.265
-1.155,-0.076,1.307,-238.403,114.624,-304.687
-1.191,-0.137,1.379,-223.816,102.722,-303.345
-1.144,-0.220,1.424,-178.467,93.445,-289.612
-1.079,-0.258,1.429,-124.390,87.830,-275.757
-1.053,-0.270,1.404,-88.928,85.144,-270.874
-1.043,-0.288,1.353,-83.923,81.238,-277.100
-0.995,-0.254,1.312,-103.638,73.364,-291.199
-0.987,-0.208,1.285,-131.531,61.707,-306.824
-1.004,-0.177,1.212,-147.400,43.274,-315.125
-1.073,-0.162,1.107,-141.113,21.973,-313.660
-1.099,-0.144,1.018,-120.361,3.662,-309.326
-1.080,-0.098,0.946,-98.022,-8.789,-307.495
-1.067,-0.022,0.875,-85.876,-15.564,-308.777
-1.045,0.045,0.813,-84.351,-19.897,-309.692
-1.037,0.068,0.749,-85.510,-22.156,-303.101
-1.032,0.059,0.695,-82.703,-20.264,-287.048
-1.062,0.013,0.712,-73.425,-15.381,-267.029
-1.073,-0.022,0.793,-62.744,-12.512,-248.718
-1.092,-0.075,0.879,-55.542,-13.306,-235.474
-1.094,-0.122,0.917,-54.443,-20.081,-229.797
-1.076,-0.148,0.904,-56.458,-31.311,-231.445
-1.041,-0.109,0.871,-56.824,-41.870,-238.098
-0.995,-0.016,0.852,-52.368,-50.537,-245.422
-0.965,0.116,0.809,-43.640,-56.458,-249.329
-0.929,0.254,0.738,-34.790,-58.838,-247.009
-0.924,0.358,0.668,-29.663,-58.228,-236.694
-0.919,0.373,0.600,-28.076,-55.115,-215.698
-0.925,0.311,0.582,-22.827,-47.302,-188.354
-0.933,0.233,0.630,-10.986,-38.452,-161.926
-0.955,0.185,0.692,3.052,-34.119,-139.587
-0.942,0.143,0.733,13.611,-38.086,-120.728
-0.938,0.098,0.756,19.226,-45.715,-107.300
-0.906,0.071,0.772,22.644,-53.467,-100.586
-0.878,0.072,0.780,25.696,-58.716,-99.670
-0.860,0.120,0.773,28.137,-60.547,-101.807
-0.847,0.227,0.752,29.846,-58.838,-102.051
-0.818,0.364,0.714,26.550,-54.626,-96.130
-0.803,0.457,0.706,16.296,-47.607,-82.825
-0.798,0.471,0.729,2.991,-39.063,-63.599
-0.810,0.400,0.793,-5.676,-32.654,-41.626
-0.820,0.305,0.836,-6.592,-31.311,-22.766
-0.806,0.213,0.843,-2.014,-33.997,-9.338
-0.794,0.153,0.820,5.554,-36.011,-2.747
-0.780,0.119,0.789,12.573,-35.156,-1.038
-0.743,0.113,0.770,15.076,-32.104,-3.113
-0.733,0.125,0.740,14.038,-25.696,-6.409
-0.715,0.145,0.728,11.292,-17.456,-10.193
-0.702,0.172,0.739,7.874,-8.789,-13.367
-0.692,0.196,0.768,5.371,-0.549,-14.954
-0.690,0.221,0.816,3.418,4.333,-14.893
-0.692,0.240,0.859,3.052,2.991,-11.963
-0.675,0.227,0.855,5.127,-2.991,-7.507
-0.655,0.208,0.808,7.690,-9.033,-4.211
-0.631,0.185,0.754,9.583,-12.390,-3.357
-0.608,0.172,0.720,10.010,-12.146,-4.028
-0.585,0.179,0.705,8.545,-9.521,-5.981
-0.564,0.191,0.691,6.714,-5.981,-7.568
-0.557,0.215,0.677,2.563,-2.563,-7.996
-0.546,0.226,0.683,-2.075,1.465,-7.202
-0.542,0.225,0.695,-5.432,5.127,-5.737
-0.542,0.227,0.728,-7.812,6.653,-4.089
-0.562,0.225,0.786,-8.240,3.601,-1.221
-0.569,0.189,0.804,-5.676,-5.188,4.089

-1.821,0.363,0.765,-47.485,100.891,81.909
-1.931,0.509,0.771,-59.082,98.450,89.722
-2.042,0.628,0.742,-50.415,98.755,110.046
-2.162,0.691,0.694,-29.663,103.638,140.686
-2.326,0.784,0.697,-10.132,112.854,175.110
-2.460,0.917,0.781,1.099,121.887,211.609
-2.636,1.021,0.914,3.113,124.329,252.197
-2.771,1.069,1.027,-0.061,116.882,296.326
-2.785,1.049,1.140,1.709,98.877,338.379
-2.738,1.013,1.152,13.428,72.571,375.610
-2.678,0.966,1.096,31.738,47.058,407.471
-2.663,0.984,1.015,48.096,26.428,431.519
-2.735,1.041,0.908,63.416,9.644,451.172
-2.708,1.187,0.856,88.074,-3.479,470.154
-2.542,1.414,0.965,119.202,-14.526,490.112
-2.344,1.561,1.189,144.043,-30.090,514.343
-2.127,1.548,1.321,158.630,-61.340,538.330
-1.880,1.480,1.342,172.424,-103.149,551.208
-1.677,1.376,1.253,183.289,-140.991,550.476
-1.441,1.235,1.086,183.044,-170.105,540.039
-1.200,1.268,0.973,182.068,-183.350,520.569
-0.921,1.467,1.025,200.806,-173.157,502.747
-0.656,1.744,1.192,227.539,-146.973,492.615
-0.259,2.175,1.697,238.037,-120.178,479.797
0.147,2.349,2.169,222.961,-101.624,463.806
0.595,2.127,2.245,185.242,-110.718,456.299
0.963,1.592,1.990,145.630,-126.282,454.285
1.392,1.003,1.746,117.859,-124.756,441.467
1.831,0.615,1.589,104.065,-110.413,406.250
2.330,0.535,1.552,98.877,-87.036,354.736
2.557,0.585,1.455,96.130,-56.213,300.354
2.588,0.678,1.402,98.267,-21.362,250.244
2.624,0.764,1.470,105.591,10.986,205.078
2.662,0.843,1.683,107.727,26.367,160.889
2.642,0.865,1.865,99.487,14.038,112.183
2.636,0.833,1.786,77.759,-24.719,53.040
2.627,0.838,1.456,39.429,-72.937,-14.404
2.598,0.849,0.993,-13.306,-109.375,-79.956
2.494,0.798,0.474,-66.406,-126.709,-127.808
2.358,0.712,0.012,-99.121,-120.667,-154.541
2.168,0.610,-0.244,-101.624,-87.524,-164.490
1.953,0.535,-0.229,-77.942,-35.156,-164.795
1.679,0.527,0.003,-46.448,16.174,-163.208
1.371,0.515,0.278,-28.381,53.650,-162.292
1.077,0.445,0.558,-32.349,75.073,-167.664
0.819,0.338,0.723,-53.467,83.130,-182.495
0.611,0.240,0.767,-79.102,83.435,-204.346
0.434,0.201,0.794,-98.572,88.196,-230.286
0.265,0.207,0.822,-107.910,98.633,-255.432
0.108,0.253,0.842,-107.361,110.046,-273.010
-0.058,0.303,0.839,-98.328,120.972,-281.311
-0.215,0.349,0.883,-89.050,131.958,-283.142
-0.397,0.387,0.997,-89.478,143.433,-283.752
-0.614,0.411,1.237,-99.365,154.175,-285.889
-0.885,0.385,1.492,-114.502,160.828,-289.612
-1.209,0.296,1.657,-129.822,158.325,-294.739
-1.534,0.237,1.724,-139.587,143.127,-302.551
-1.751,0.185,1.687,-141.174,119.324,-311.401
-1.843,0.152,1.614,-136.353,93.018,-319.214
-1.839,0.132,1.532,-123.474,70.007,-322.021
-1.777,0.072,1.413,-105.591,51.147,-318.176
-1.700,-0.027,1.314,-88.440,39.368,-310.425
-1.606,-0.050,1.245,-77.087,36.072,-303.467
-1.552,-0.096,1.214,-74.890,38.330,-292.908
-1.507,-0.201,1.232,-73.792,40.955,-278.931
-1.504,-0.293,1.293,-66.528,41.809,-266.052
-1.477,-0.361,1.343,-52.734,34.912,-258.728
-1.443,-0.389,1.360,-39.673,20.569,-258.911
-1.409,-0.355,1.310,-32.349,0.854,-266.052
-1.354,-0.271,1.204,-31.799,-21.179,-277.832
-1.279,-0.175,1.035,-35.767,-42.358,-287.659
-1.205,-0.103,0.855,-40.405,-57.983,-289.490
-1.149,-0.067,0.685,-42.847,-64.392,-283.508
-1.117,-0.055,0.552,-42.480,-60.974,-270.203
-1.117,-0.080,0.504,-38.025,-51.575,-253.357
-1.110,-0.109,0.506,-29.175,-39.795,-236.816
-1.114,-0.118,0.578,-18.005,-29.846,-224.060
-1.107,-0.127,0.661,-8.972,-26.062,-214.844
-1.095,-0.090,0.763,-5.310,-29.785,-210.205
-1.079,-0.023,0.846,-4.639,-40.161,-208.130
-1.065,0.032,0.836,-6.958,-55.176,-204.468
-1.038,0.069,0.762,-11.963,-68.848,-198.486
-1.002,0.080,0.692,-15.259,-74.402,-188.843
-0.980,0.101,0.648,-14.832,-72.815,-175.049
-0.966,0.113,0.630,-11.169,-68.054,-156.982
-0.951,0.131,0.607,-2.991,-62.744,-136.230
-0.936,0.132,0.596,7.874,-56.885,-114.624
-0.914,0.141,0.602,18.616,-52.124,-94.482
-0.899,0.141,0.647,27.283,-47.241,-77.026
-0.900,0.123,0.700,32.837,-45.044,-63.110
-0.890,0.124,0.747,37.354,-45.471,-54.565
-0.897,0.145,0.773,39.490,-46.570,-50.171
-0.896,0.168,0.759,36.438,-48.523,-47.424
-0.897,0.209,0.721,29.236,-49.805,-45.410
-0.899,0.218,0.682,22.095,-47.729,-41.687
-0.892,0.209,0.650,16.418,-43.762,-36.133
-0.882,0.197,0.635,15.686,-38.757,-29.724
-0.873,0.179,0.628,20.813,-33.508,-22.827
-0.860,0.160,0.622,28.259,-28.931,-16.846
-0.841,0.168,0.631,33.508,-24.536,-14.709
-0.829,0.196,0.650,32.959,-20.081,-15.869
-0.812,0.233,0.683,26.428,-17.212,-18.738
-0.790,0.263,0.707,15.869,-17.639,-22.034
-0.760,0.282,0.705,6.287,-21.179,-23.865
-0.730,0.288,0.678,1.709,-23.560,-23.437
-0.706,0.282,0.636,0.977,-25.085,-21.301
-0.682,0.256,0.588,5.310,-25.574,-16.724
-0.663,0.241,0.553,11.841,-23.804,-12.451
-0.645,0.224,0.543,15.442,-21.057,-10.071
-0.631,0.206,0.542,13.550,-18.738,-9.888
-0.613,0.188,0.553,9.094,-17.212,-11.292
-0.599,0.173,0.556,5.920,-16.418,-13.611
-0.585,0.182,0.555,4.272,-16.174,-16.174
-0.590,0.205,0.561,1.038,-16.479,-17.517
-0.590,0.214,0.571,-3.540,-17.639,-15.808
-0.599,0.201,0.558,-8.423,-19.409,-12.146
-0.602,0.181,0.530,-12.512,-20.447,-8.789
-0.615,0.168,0.510,-12.695,-18.677,-6.165
-0.637,0.146,0.502,-8.606,-14.709,-3.723

-2.096,0.519,0.362,-7.812,82.214,116.882
-2.355,0.619,0.382,-7.019,91.797,137.024
-2.623,0.781,0.443,-11.902,101.196,155.151
-2.930,0.971,0.571,-19.226,111.633,173.218
-3.165,1.210,0.723,-24.902,118.652,192.932
-3.352,1.457,0.843,-23.926,119.324,218.933
-3.523,1.683,0.987,-16.174,114.380,255.310
-3.561,1.925,0.996,-4.456,100.037,304.016
-3.438,2.128,1.029,5.249,84.229,358.704
-3.199,2.238,1.093,7.324,65.491,414.185
-2.821,2.239,1.071,9.827,40.527,466.309
-2.380,2.200,0.991,18.311,10.681,509.888
-1.939,2.123,0.818,33.386,-17.334,546.631
-1.456,2.064,0.657,58.411,-46.936,577.576
-0.991,2.208,0.646,91.858,-70.007,604.248
-0.664,2.325,0.712,122.375,-79.956,629.700
-0.302,2.323,0.815,141.113,-89.722,654.236
-0.011,2.235,0.947,153.198,-94.604,671.448
0.165,1.991,1.038,161.316,-97.534,680.359
0.425,1.557,1.005,168.030,-110.352,683.411
0.834,1.043,0.866,170.471,-126.404,674.805
1.184,0.625,0.686,165.100,-124.756,649.719
1.547,0.418,0.664,163.391,-98.572,612.183
1.769,0.372,0.710,176.025,-51.147,574.890
1.805,0.190,0.826,195.679,4.883,549.194
1.865,-0.131,1.134,214.111,53.284,526.733
1.913,-0.362,1.510,227.234,82.703,485.168
1.835,-0.434,1.767,228.333,90.820,414.612
1.722,-0.321,1.920,212.585,85.083,318.542
1.640,-0.015,1.995,178.101,69.214,205.872
1.624,0.429,2.088,134.521,41.931,96.985
1.728,0.821,2.046,96.497,8.972,10.620
1.859,1.077,1.800,68.176,-21.423,-44.922
1.949,1.162,1.468,43.762,-42.603,-77.698
1.937,1.157,1.123,21.423,-52.307,-98.511
1.874,1.115,0.829,-0.427,-55.969,-114.075
1.780,1.085,0.545,-25.208,-59.448,-126.160
1.665,0.902,0.310,-50.842,-64.636,-134.644
1.538,0.715,0.141,-71.838,-65.735,-146.851
1.391,0.559,0.059,-84.839,-61.462,-161.560
1.277,0.431,-0.000,-87.830,-53.955,-172.180
1.151,0.321,-0.019,-86.182,-42.603,-176.147
1.002,0.180,-0.024,-84.167,-26.428,-175.476
0.870,0.043,-0.011,-85.571,-8.728,-175.903
0.745,-0.057,0.028,-87.891,9.949,-180.359
0.604,-0.072,0.102,-89.478,29.419,-187.927
0.481,-0.051,0.195,-93.628,46.997,-196.594
0.347,-0.017,0.295,-104.126,62.683,-207.825
0.198,0.059,0.459,-122.986,76.477,-221.313
0.006,0.100,0.621,-146.118,83.008,-232.971
-0.126,0.091,0.743,-169.861,81.787,-239.502
-0.265,0.044,0.848,-188.965,80.994,-246.155
-0.384,-0.057,0.951,-199.036,82.336,-253.235
-0.482,-0.162,1.034,-195.251,82.764,-260.986
-0.577,-0.197,1.126,-180.237,85.327,-271.606
-0.714,-0.146,1.252,-161.072,91.309,-283.691
-0.876,-0.050,1.392,-146.729,95.093,-294.312
-1.031,0.012,1.489,-147.400,89.417,-300.171
-1.115,-0.005,1.527,-163.025,73.792,-305.481
-1.138,-0.089,1.515,-178.345,53.040,-313.782
-1.130,-0.209,1.465,-181.458,34.851,-318.848
-1.113,-0.315,1.415,-165.222,23.499,-317.566
-1.128,-0.334,1.373,-132.874,19.165,-315.430
-1.117,-0.239,1.361,-99.182,17.456,-316.650
-1.115,-0.079,1.337,-76.904,14.771,-321.289
-1.127,0.066,1.264,-70.068,9.705,-324.829
-1.131,0.200,1.213,-73.181,2.686,-325.500
-1.158,0.295,1.176,-77.637,-3.967,-321.167
-1.178,0.335,1.128,-80.139,-12.390,-311.829
-1.156,0.299,1.069,-77.698,-23.682,-297.241
-1.151,0.203,0.995,-67.505,-30.945,-276.367
-1.166,0.074,0.950,-47.729,-27.771,-251.282
-1.175,-0.020,0.959,-23.743,-18.311,-229.187
-1.186,-0.103,0.990,-5.676,-8.667,-213.806
-1.179,-0.178,1.005,-0.977,-3.113,-206.726
-1.145,-0.205,1.029,-6.653,-2.563,-209.717
-1.104,-0.168,1.051,-17.822,-4.822,-219.543
-1.064,-0.087,1.078,-26.550,-11.047,-230.713
-1.021,0.025,1.075,-29.175,-21.545,-238.403
-0.986,0.156,1.021,-28.503,-32.654,-242.615
-0.965,0.284,0.946,-25.452,-42.603,-242.004
-0.954,0.401,0.855,-17.639,-49.377,-234.253
-0.946,0.481,0.773,-6.836,-52.551,-218.018
-0.946,0.513,0.711,4.211,-53.040,-196.594
-0.949,0.489,0.656,14.282,-52.307,-172.180
-0.938,0.437,0.618,22.034,-51.758,-151.550
-0.923,0.396,0.603,26.489,-50.293,-137.390
-0.903,0.368,0.591,27.954,-49.072,-128.296
-0.878,0.361,0.572,25.024,-50.049,-122.070
-0.848,0.376,0.561,20.752,-52.063,-116.150
-0.821,0.396,0.544,16.724,-53.955,-107.178
-0.793,0.393,0.515,13.550,-56.030,-95.154
-0.770,0.367,0.490,12.939,-55.664,-81.299
-0.770,0.327,0.478,17.090,-50.293,-68.787
-0.764,0.295,0.489,22.949,-43.701,-60.181
-0.751,0.276,0.501,27.588,-38.025,-54.932
-0.738,0.260,0.505,29.236,-33.081,-54.443
-0.721,0.271,0.527,29.724,-28.320,-56.946
-0.723,0.314,0.593,28.137,-24.048,-59.875
-0.715,0.353,0.656,23.743,-24.475,-60.669
-0.715,0.388,0.690,17.090,-29.785,-58.105
-0.709,0.390,0.690,10.437,-36.438,-52.124
-0.706,0.358,0.652,5.371,-42.419,-43.274
-0.681,0.321,0.600,4.517,-46.875,-33.813
-0.674,0.241,0.528,7.812,-45.959,-26.550
-0.665,0.235,0.522,11.780,-41.504,-24.658
-0.658,0.235,0.513,12.146,-34.546,-23.071
-0.665,0.238,0.534,11.902,-26.306,-22.644
-0.674,0.260,0.590,13.611,-19.470,-23.376
-0.692,0.302,0.659,15.259,-15.381,-23.560
-0.707,0.355,0.710,12.878,-15.625,-23.010
-0.724,0.388,0.731,6.287,-18.127,-21.667
-0.739,0.403,0.746,-1.831,-21.790,-18.982
-0.743,0.409,0.731,-7.935,-24.841,-14.954
-0.752,0.406,0.729,-9.766,-25.513,-9.644
-0.758,0.401,0.719,-7.874,-24.536,-4.822
-0.766,0.389,0.690,-6.409,-22.400,-1.038
-0.757,0.375,0.655,-6.836,-20.142,2.136
-0.747,0.339,0.631,-7.568,-15.991,4.089

-1.566,0.488,0.674,35.889,75.073,120.422
-1.645,0.529,0.771,33.997,86.609,140.381
-1.742,0.565,0.866,28.198,92.468,160.645
-1.837,0.611,0.922,21.240,91.858,179.687
-1.937,0.661,0.924,16.479,86.121,199.097
-2.068,0.717,0.851,17.395,78.186,219.788
-2.217,0.815,0.742,22.583,72.144,241.394
-2.458,0.957,0.592,27.527,69.763,263.489
-2.717,1.157,0.496,29.907,70.557,285.034
-2.775,1.400,0.531,28.992,74.890,308.289
-2.637,1.546,0.737,30.884,83.618,341.553
-2.418,1.529,0.996,43.457,89.417,386.353
-2.193,1.439,1.273,70.251,84.778,435.303
-1.996,1.336,1.557,106.567,65.002,477.722
-1.850,1.269,1.772,140.137,25.940,508.911
-1.665,1.227,1.800,160.706,-32.837,526.489
-1.485,1.205,1.661,164.673,-99.854,528.381
-1.250,1.186,1.415,156.006,-158.142,520.325
-0.995,1.195,1.095,143.372,-200.500,508.850
-0.729,1.161,0.804,134.216,-222.412,501.160
-0.464,1.099,0.630,135.559,-225.281,499.329
-0.264,0.975,0.595,148.987,-213.562,501.770
-0.037,0.822,0.615,171.692,-203.735,505.188
0.229,0.703,0.616,203.857,-202.087,506.714
0.385,0.581,0.658,236.755,-196.167,506.226
0.576,0.425,0.792,257.568,-180.115,496.521
0.743,0.277,1.031,256.348,-159.058,473.511
0.750,0.056,1.159,234.741,-135.132,440.186
0.892,-0.056,1.234,202.698,-119.751,398.804
1.098,-0.073,1.218,173.279,-105.896,351.196
1.338,0.028,1.128,154.419,-85.754,302.979
1.615,0.160,1.060,140.808,-63.599,259.277
1.934,0.224,1.152,125.122,-38.818,220.520
2.098,0.258,1.350,108.215,-11.108,177.856
2.113,0.246,1.511,91.309,13.367,124.512
2.047,0.251,1.652,74.280,25.146,57.922
2.036,0.410,1.708,60.242,18.127,-16.174
2.004,0.651,1.623,39.917,-3.723,-84.290
1.962,0.878,1.303,9.216,-32.898,-132.385
1.912,0.925,0.896,-27.710,-60.059,-156.250
1.789,0.859,0.501,-66.040,-76.477,-165.710
1.646,0.651,0.209,-93.201,-74.463,-167.358
1.491,0.444,0.024,-107.056,-54.443,-167.236
1.329,0.230,-0.025,-108.154,-23.865,-162.964
1.167,0.060,0.013,-100.037,10.071,-157.776
1.009,-0.013,0.185,-89.600,41.016,-157.227
0.821,-0.055,0.389,-81.421,65.674,-156.982
0.616,-0.134,0.525,-82.275,80.627,-157.959
0.443,-0.195,0.587,-98.022,87.097,-165.833
0.283,-0.251,0.616,-126.343,93.506,-179.993
0.138,-0.315,0.593,-159.668,99.548,-199.097
0.069,-0.327,0.544,-189.880,104.431,-219.299
0.048,-0.291,0.526,-206.543,111.877,-236.816
-0.007,-0.202,0.604,-204.407,123.413,-246.521
-0.121,-0.120,0.780,-185.303,136.536,-243.164
-0.264,-0.128,0.995,-159.363,145.874,-224.976
-0.407,-0.244,1.194,-136.780,149.597,-202.881
-0.563,-0.429,1.330,-127.686,148.193,-191.467
-0.722,-0.581,1.384,-137.146,143.799,-198.853
-0.849,-0.643,1.406,-161.438,137.634,-226.013
-0.901,-0.602,1.421,-185.242,128.723,-260.132
-0.919,-0.474,1.443,-189.392,118.042,-286.865
-0.883,-0.288,1.451,-170.898,106.567,-300.232
-0.857,-0.118,1.474,-139.954,95.703,-295.776
-0.883,-0.014,1.532,-110.046,88.318,-278.931
-0.914,-0.005,1.579,-87.585,82.031,-257.629
-0.928,-0.073,1.599,-74.219,73.975,-240.356
-0.932,-0.148,1.589,-66.345,64.026,-232.605
-0.924,-0.195,1.535,-62.622,51.147,-232.666
-0.884,-0.201,1.454,-61.951,36.194,-237.488
-0.855,-0.187,1.354,-62.012,23.987,-242.981
-0.832,-0.145,1.243,-60.913,14.648,-247.681
-0.795,-0.065,1.138,-58.838,7.263,-250.305
-0.802,0.018,1.061,-57.556,5.615,-250.366
-0.809,0.086,1.028,-57.922,7.874,-248.718
-0.806,0.135,1.019,-58.777,9.460,-245.667
-0.809,0.165,1.037,-58.167,10.986,-240.173
-0.827,0.171,1.069,-54.077,13.245,-232.788
-0.848,0.160,1.115,-47.424,11.597,-223.450
-0.857,0.129,1.155,-38.818,3.357,-213.989
-0.855,0.098,1.155,-29.236,-8.728,-206.848
-0.829,0.077,1.090,-21.057,-22.522,-203.552
-0.798,0.083,0.991,-17.578,-33.691,-204.468
-0.761,0.107,0.897,-18.921,-38.696,-207.581
-0.750,0.165,0.832,-23.560,-36.865,-211.182
-0.756,0.231,0.791,-31.555,-32.654,-212.463
-0.765,0.275,0.761,-41.443,-30.579,-208.679
-0.763,0.288,0.724,-47.852,-30.396,-200.012
-0.775,0.282,0.724,-45.288,-30.334,-186.523
-0.784,0.263,0.757,-32.837,-30.762,-169.678
-0.786,0.255,0.786,-13.123,-34.058,-150.757
-0.784,0.239,0.802,6.775,-38.940,-133.850
-0.779,0.226,0.796,20.935,-43.579,-121.216
-0.756,0.219,0.771,24.292,-48.340,-114.685
-0.736,0.223,0.728,17.639,-51.270,-112.915
-0.713,0.234,0.681,6.165,-52.246,-113.220
-0.686,0.241,0.645,-4.456,-48.828,-113.098
-0.663,0.248,0.644,-11.841,-42.236,-111.938
-0.650,0.270,0.673,-12.207,-34.546,-108.337
-0.641,0.297,0.710,-3.601,-29.114,-100.830
-0.630,0.337,0.782,11.108,-26.794,-89.172
-0.638,0.355,0.870,24.536,-29.541,-75.745
-0.646,0.319,0.888,29.663,-37.903,-64.087
-0.644,0.279,0.876,26.489,-51.575,-57.800
-0.633,0.235,0.806,18.005,-63.538,-56.091
-0.629,0.216,0.739,10.254,-69.763,-57.800
-0.622,0.222,0.679,4.883,-72.205,-60.364
-0.632,0.246,0.628,2.319,-69.702,-61.768
-0.638,0.270,0.576,2.319,-62.988,-61.584
-0.671,0.297,0.559,3.784,-53.650,-60.486
-0.680,0.340,0.573,6.653,-45.715,-57.373
-0.699,0.383,0.616,10.620,-37.170,-51.270
-0.719,0.410,0.681,13.611,-30.212,-43.152
-0.746,0.398,0.749,14.038,-26.245,-35.583
-0.765,0.360,0.791,11.230,-25.391,-30.518
-0.765,0.312,0.819,8.667,-26.611,-28.625
-0.774,0.297,0.812,7.874,-29.480,-29.480
-0.770,0.309,0.783,8.057,-31.616,-31.067
-0.758,0.321,0.752,7.568,-31.067,-30.945

-1.152,0.599,0.888,4.883,64.148,42.297
-1.241,0.655,0.880,18.616,68.481,65.613
-1.332,0.646,0.894,29.114,74.585,93.201
-1.440,0.594,0.920,34.485,81.360,118.591
-1.526,0.566,0.965,36.926,87.708,138.428
-1.628,0.589,1.072,36.621,93.262,154.663
-1.736,0.610,1.227,32.471,95.154,170.959
-1.828,0.632,1.375,25.574,89.539,189.026
-1.911,0.658,1.450,22.949,75.745,208.313
-2.015,0.728,1.430,32.654,58.411,231.201
-2.132,0.860,1.338,53.040,40.955,259.766
-2.228,0.979,1.264,77.576,25.269,292.725
-2.340,1.097,1.198,95.703,12.756,324.219
-2.457,1.218,1.182,100.769,6.348,346.680
-2.450,1.318,1.307,95.398,2.747,361.633
-2.403,1.386,1.509,88.440,1.526,373.474
-2.367,1.488,1.752,90.881,-5.127,388.062
-2.320,1.563,1.910,107.056,-28.137,407.715
-2.188,1.661,2.009,133.057,-67.749,429.504
-1.992,1.766,2.076,160.034,-113.708,447.327
-1.695,1.825,2.082,176.697,-161.926,458.130
-1.358,1.852,1.976,181.519,-207.214,459.595
-1.040,1.811,1.781,174.805,-241.516,456.238
-0.738,1.680,1.542,161.255,-263.611,451.782
-0.440,1.528,1.317,146.912,-275.269,446.228
-0.148,1.379,1.139,136.963,-274.841,439.514
0.152,1.267,1.014,136.536,-263.916,431.885
0.477,1.180,0.943,147.034,-243.347,426.208
0.808,1.146,1.000,169.250,-215.576,424.988
1.143,1.087,1.270,199.097,-177.979,426.880
1.375,0.981,1.597,218.262,-141.113,428.711
1.555,0.673,1.754,212.341,-127.319,427.246
1.792,0.349,1.560,179.871,-138.184,410.950
2.135,0.191,1.225,138.245,-145.935,368.591
2.503,0.203,0.869,101.685,-134.827,308.777
2.706,0.369,0.630,77.148,-106.689,247.437
2.714,0.608,0.720,59.509,-79.102,190.491
2.686,0.767,0.705,48.950,-72.021,144.226
2.641,0.854,0.623,41.016,-65.796,112.549
2.559,0.888,0.579,28.809,-59.265,88.013
2.514,0.889,0.444,12.024,-56.091,69.824
2.441,0.876,0.272,-4.761,-52.368,54.565
2.291,0.686,0.159,-18.616,-50.232,43.579
2.111,0.414,0.066,-32.471,-42.847,22.827
1.941,0.194,0.012,-50.659,-25.879,-4.150
1.737,0.004,-0.030,-69.702,-0.122,-29.236
1.539,-0.146,0.042,-79.895,34.119,-52.917
1.353,-0.289,0.197,-74.158,67.139,-68.970
1.209,-0.312,0.426,-58.350,94.055,-80.261
1.027,-0.289,0.686,-45.532,117.737,-87.036
0.839,-0.289,0.887,-50.659,133.240,-94.482
0.678,-0.291,1.024,-76.538,138.794,-106.445
0.500,-0.339,1.094,-115.723,140.320,-123.901
0.358,-0.398,1.108,-152.344,140.198,-146.179
0.243,-0.412,1.123,-176.392,141.785,-171.692
0.102,-0.368,1.166,-181.580,147.400,-194.458
-0.043,-0.345,1.238,-168.762,155.334,-208.679
-0.198,-0.314,1.322,-149.963,163.513,-215.942
-0.388,-0.319,1.407,-136.963,172.607,-221.497
-0.555,-0.350,1.513,-133.728,179.749,-226.379
-0.691,-0.345,1.671,-134.460,180.603,-232.178
-0.792,-0.294,1.785,-133.911,173.645,-236.877
-0.849,-0.236,1.794,-130.432,159.180,-236.267
-0.873,-0.160,1.758,-123.047,142.883,-230.957
-0.896,-0.111,1.713,-112.976,131.653,-222.107
-0.924,-0.115,1.662,-103.882,124.451,-211.731
-0.934,-0.171,1.604,-98.511,117.004,-203.369
-0.926,-0.265,1.558,-97.168,109.253,-201.782
-0.926,-0.352,1.521,-100.281,102.783,-209.045
-0.913,-0.413,1.479,-104.980,96.130,-221.375
-0.912,-0.410,1.438,-105.652,88.928,-233.826
-0.906,-0.356,1.405,-99.243,83.069,-243.774
-0.905,-0.281,1.371,-88.440,76.782,-247.559
-0.893,-0.211,1.323,-78.247,68.359,-246.643
-0.881,-0.146,1.266,-71.228,60.120,-243.347
-0.876,-0.098,1.211,-68.726,54.810,-239.563
-0.870,-0.063,1.181,-70.496,49.255,-237.122
-0.866,-0.073,1.156,-74.280,42.175,-233.948
-0.856,-0.121,1.105,-76.233,33.569,-228.088
-0.848,-0.167,1.047,-72.876,25.879,-222.229
-0.848,-0.182,1.017,-64.148,21.240,-218.201
-0.855,-0.160,1.012,-55.420,18.250,-216.858
-0.861,-0.103,1.021,-51.575,14.648,-217.346
-0.873,-0.053,1.024,-55.054,9.033,-218.140
-0.872,-0.023,1.013,-63.171,1.587,-219.055
-0.871,-0.000,0.973,-70.374,-5.127,-221.313
-0.872,0.044,0.943,-74.341,-10.620,-223.572
-0.885,0.075,0.952,-73.730,-14.771,-223.145
-0.908,0.076,0.948,-69.824,-19.043,-217.590
-0.939,0.029,0.932,-62.683,-21.179,-205.383
-0.959,-0.027,0.937,-52.551,-21.362,-192.383
-0.970,-0.066,0.941,-41.443,-21.423,-183.838
-0.973,-0.073,0.945,-34.607,-22.827,-180.237
-0.958,-0.047,0.942,-35.156,-26.978,-179.443
-0.930,-0.003,0.912,-43.335,-32.654,-179.687
-0.897,0.035,0.862,-54.626,-38.208,-179.138
-0.865,0.097,0.817,-62.866,-43.396,-175.659
-0.828,0.151,0.768,-63.538,-47.302,-167.847
-0.795,0.198,0.719,-57.434,-49.622,-155.518
-0.762,0.219,0.681,-47.424,-50.049,-139.282
-0.736,0.209,0.663,-36.560,-48.523,-121.643
-0.714,0.183,0.654,-26.794,-45.227,-105.530
-0.685,0.146,0.639,-20.325,-42.786,-92.651
-0.646,0.121,0.620,-18.311,-41.199,-84.290
-0.609,0.127,0.619,-20.813,-39.856,-79.102
-0.583,0.152,0.617,-26.917,-39.673,-73.669
-0.546,0.171,0.621,-36.133,-41.321,-66.406
-0.506,0.182,0.626,-44.556,-42.297,-57.007
-0.483,0.187,0.654,-47.913,-40.649,-46.448
-0.485,0.187,0.705,-43.030,-36.072,-33.691
-0.490,0.174,0.759,-30.762,-30.701,-19.653
-0.512,0.158,0.801,-17.517,-26.855,-7.690
-0.532,0.150,0.822,-8.118,-25.574,0.366
-0.545,0.157,0.832,-3.540,-26.428,5.066
-0.553,0.165,0.859,-2.319,-26.855,8.240
-0.573,0.168,0.874,-2.808,-26.428,10.498
-0.587,0.167,0.891,-5.188,-26.001,11.414
-0.608,0.170,0.897,-7.385,-24.963,11.230
-0.623,0.172,0.895,-8.179,-23.254,11.536

-1.262,0.559,0.970,-8.057,62.805,39.001
-1.365,0.554,1.034,-8.484,69.885,55.420
-1.478,0.537,1.072,-12.329,75.317,70.618
-1.544,0.546,1.121,-18.616,79.346,84.106
-1.627,0.597,1.209,-22.827,83.008,98.328
-1.710,0.674,1.290,-17.212,81.604,120.728
-1.776,0.752,1.323,1.099,75.500,154.785
-1.849,0.801,1.315,28.137,67.932,198.486
-1.926,0.784,1.264,55.786,63.293,245.483
-2.052,0.772,1.220,75.623,62.317,285.156
-2.143,0.783,1.156,82.153,63.110,315.796
-2.236,0.804,1.133,75.256,69.214,336.060
-2.239,0.872,1.164,58.838,76.538,345.520
-2.178,1.018,1.231,49.561,80.566,352.600
-2.121,1.228,1.406,65.979,78.674,371.094
-2.081,1.436,1.544,107.849,62.744,402.039
-1.976,1.597,1.569,158.813,29.541,441.467
-1.860,1.704,1.503,202.026,-8.728,478.027
-1.702,1.728,1.359,222.717,-44.006,500.610
-1.486,1.724,1.201,216.858,-70.801,505.432
-1.269,1.711,1.065,188.904,-87.402,495.483
-1.070,1.697,0.936,154.297,-94.482,482.117
-0.846,1.660,0.863,136.292,-98.755,476.562
-0.614,1.601,0.798,157.715,-105.469,487.000
-0.378,1.502,0.722,209.961,-113.037,509.094
-0.058,1.357,0.660,267.578,-120.422,532.715
0.179,1.143,0.562,305.420,-122.131,543.640
0.343,1.016,0.541,301.270,-109.802,528.381
0.600,0.973,0.733,253.296,-80.261,489.807
0.871,0.971,1.018,182.129,-41.016,438.660
1.022,0.949,1.297,125.427,-6.836,395.325
1.199,0.833,1.498,113.831,4.089,373.169
1.550,0.550,1.504,145.264,-16.357,367.126
1.867,0.152,1.332,182.495,-44.189,353.699
2.107,-0.117,1.123,196.716,-63.049,307.312
2.285,-0.145,0.898,183.838,-76.355,223.206
2.418,0.082,0.739,149.109,-84.412,121.887
2.492,0.443,0.641,102.417,-90.393,30.334
2.501,0.753,0.500,55.481,-95.154,-34.302
2.430,0.934,0.306,20.508,-95.337,-67.261
2.295,0.910,0.132,5.127,-91.125,-71.716
2.150,0.746,0.008,5.371,-84.900,-64.209
2.040,0.568,-0.077,10.071,-74.890,-60.059
1.929,0.427,-0.115,10.071,-61.462,-65.674
1.775,0.322,-0.103,2.747,-44.373,-78.979
1.613,0.254,-0.063,-9.888,-24.902,-98.511
1.444,0.197,-0.013,-26.917,-7.263,-121.521
1.259,0.161,0.079,-49.316,10.986,-145.935
1.083,0.132,0.180,-72.449,27.527,-166.382
0.917,0.103,0.267,-91.125,39.734,-178.955
0.771,0.051,0.354,-101.318,51.636,-183.228
0.618,0.049,0.456,-100.037,67.139,-182.922
0.457,-0.001,0.550,-89.844,85.022,-178.772
0.312,-0.032,0.640,-78.735,99.670,-176.208
0.182,-0.056,0.735,-75.989,112.000,-180.908
0.051,-0.056,0.822,-87.952,122.620,-193.176
-0.073,-0.045,0.929,-111.328,128.967,-210.999
-0.187,-0.029,1.031,-138.245,131.287,-228.699
-0.326,-0.018,1.169,-158.752,130.005,-240.845
-0.447,-0.039,1.300,-162.964,124.573,-242.615
-0.543,-0.118,1.367,-150.696,115.234,-233.704
-0.642,-0.209,1.389,-130.737,106.262,-223.083
-0.734,-0.289,1.356,-115.540,98.755,-217.285
-0.842,-0.327,1.303,-114.197,92.896,-221.924
-0.912,-0.342,1.271,-124.939,90.942,-236.450
-0.965,-0.345,1.239,-138.123,90.454,-250.488
-0.967,-0.288,1.231,-142.761,89.600,-259.949
-0.979,-0.182,1.290,-131.348,89.966,-263.672
-1.011,-0.110,1.366,-109.497,88.135,-257.019
-1.024,-0.105,1.400,-85.754,80.811,-241.638
-1.024,-0.148,1.404,-68.542,70.923,-227.600
-1.020,-0.208,1.404,-61.829,62.317,-222.534
-1.004,-0.253,1.383,-66.040,54.321,-227.112
-0.961,-0.269,1.356,-76.721,45.593,-238.342
-0.925,-0.254,1.310,-85.083,38.086,-249.695
-0.919,-0.208,1.275,-87.341,34.241,-257.812
-0.930,-0.131,1.266,-82.703,33.142,-260.742
-0.955,-0.063,1.255,-73.181,30.884,-255.432
-0.968,-0.036,1.220,-62.683,26.306,-245.117
-0.976,-0.036,1.167,-52.856,20.874,-234.009
-0.968,-0.033,1.115,-44.983,15.076,-225.891
-0.939,-0.022,1.074,-41.016,11.780,-221.375
-0.930,0.022,1.066,-40.405,10.254,-219.116
-0.916,0.066,1.062,-42.053,7.385,-216.492
-0.894,0.109,1.056,-45.959,2.258,-211.792
-0.880,0.158,1.076,-50.354,-3.784,-205.933
-0.882,0.140,1.082,-53.284,-7.751,-198.120
-0.898,0.101,1.078,-51.819,-12.085,-187.317
-0.898,0.070,1.055,-46.143,-18.005,-176.514
-0.891,0.050,1.021,-38.147,-23.804,-168.579
-0.871,0.052,0.971,-32.349,-29.724,-162.292
-0.844,0.065,0.907,-30.518,-35.461,-157.227
-0.800,0.091,0.848,-32.166,-40.039,-152.893
-0.774,0.108,0.797,-35.217,-41.443,-148.437
-0.749,0.127,0.776,-38.757,-40.161,-142.151
-0.736,0.106,0.769,-39.856,-37.476,-134.155
-0.723,0.061,0.796,-37.476,-33.936,-128.113
-0.717,0.060,0.835,-32.776,-31.616,-126.038
-0.705,0.084,0.871,-29.175,-32.166,-125.916
-0.696,0.146,0.900,-26.672,-35.522,-123.962
-0.688,0.228,0.915,-24.170,-41.382,-115.845
-0.678,0.275,0.896,-23.376,-49.683,-100.708
-0.667,0.255,0.855,-24.353,-57.678,-82.520
-0.650,0.207,0.807,-23.621,-61.829,-64.880
-0.648,0.162,0.760,-20.874,-60.608,-50.842
-0.664,0.115,0.725,-17.212,-54.382,-41.809
-0.681,0.099,0.716,-15.930,-46.021,-37.964
-0.698,0.111,0.744,-16.357,-38.879,-37.292
-0.714,0.151,0.802,-14.587,-33.569,-36.194
-0.734,0.195,0.879,-7.446,-31.677,-31.372
-0.753,0.232,0.928,2.502,-32.898,-22.705
-0.755,0.244,0.935,11.536,-37.231,-13.123
-0.756,0.231,0.921,15.442,-41.443,-5.371
-0.738,0.189,0.892,14.221,-42.847,-0.854
-0.713,0.158,0.847,9.705,-42.358,-0.732
-0.681,0.152,0.804,5.066,-38.330,-3.418
-0.662,0.180,0.782,2.319,-30.457,-5.737
-0.641,0.225,0.790,2.808,-20.447,-5.981
-0.633,0.259,0.813,5.493,-11.841,-2.686

-1.320,0.493,1.025,27.039,64.758,52.368
-1.450,0.495,1.144,25.696,69.275,71.350
-1.579,0.465,1.257,26.733,65.430,93.079
-1.682,0.435,1.282,31.616,54.688,114.990
-1.778,0.428,1.279,41.382,41.687,137.268
-1.902,0.439,1.232,55.542,32.349,160.828
-2.063,0.508,1.186,69.153,26.489,186.096
-2.258,0.629,1.141,77.393,25.085,212.585
-2.464,0.762,1.109,81.360,25.513,238.159
-2.576,0.915,1.155,82.397,24.658,262.573
-2.616,1.050,1.329,82.214,22.705,289.307
-2.650,1.130,1.553,82.214,17.029,320.374
-2.649,1.166,1.732,88.013,1.160,352.722
-2.613,1.206,1.887,106.750,-24.597,382.812
-2.567,1.272,1.897,132.690,-58.167,409.851
-2.413,1.408,1.846,155.029,-93.323,430.725
-2.125,1.558,1.770,166.443,-127.563,446.655
-1.751,1.705,1.680,166.138,-155.457,460.327
-1.392,1.828,1.682,160.645,-174.561,473.572
-1.055,1.824,1.684,156.799,-190.857,488.159
-0.728,1.719,1.599,160.889,-211.243,503.357
-0.419,1.550,1.431,172.485,-229.187,516.602
-0.161,1.369,1.196,187.683,-241.272,524.597
0.065,1.284,0.970,201.050,-243.347,523.804
0.299,1.264,0.954,208.801,-229.065,515.564
0.429,1.164,1.070,211.975,-197.571,507.141
0.724,1.051,1.217,210.144,-172.668,501.404
1.051,0.843,1.314,206.055,-162.415,495.300
1.345,0.585,1.299,193.115,-155.273,481.262
1.653,0.340,1.222,165.771,-148.621,450.195
1.800,0.147,1.014,133.118,-138.672,402.649
1.753,-0.004,0.691,108.582,-120.850,346.558
1.829,-0.003,0.466,94.543,-96.985,284.790
2.023,0.152,0.406,89.539,-63.416,221.375
2.054,0.367,0.531,83.618,-18.921,162.842
1.996,0.597,0.840,81.421,19.470,109.558
1.911,0.832,1.161,82.275,34.180,62.683
1.828,1.025,1.359,72.510,26.123,29.175
1.753,1.044,1.305,43.396,5.005,2.869
1.707,0.950,1.079,-4.578,-22.705,-23.743
1.718,0.790,0.814,-57.556,-50.171,-52.673
1.770,0.617,0.555,-99.304,-69.458,-80.505
1.787,0.517,0.318,-121.643,-76.416,-100.342
1.713,0.421,0.159,-116.272,-68.848,-108.826
1.629,0.321,0.092,-91.309,-49.805,-106.140
1.493,0.232,0.146,-63.599,-24.597,-101.807
1.342,0.161,0.270,-46.570,-0.488,-100.952
1.188,0.064,0.386,-46.814,16.846,-105.164
1.035,-0.035,0.489,-63.538,30.762,-115.479
0.896,-0.132,0.546,-87.341,41.321,-127.136
0.772,-0.231,0.563,-109.619,48.279,-139.282
0.658,-0.313,0.563,-125.244,58.472,-152.039
0.539,-0.370,0.580,-132.324,72.205,-164.368
0.413,-0.423,0.625,-134.644,87.952,-177.795
0.307,-0.440,0.729,-135.437,104.126,-193.115
0.187,-0.449,0.832,-135.132,119.629,-210.999
0.045,-0.409,0.966,-137.390,134.399,-227.417
-0.127,-0.371,1.106,-142.883,146.973,-242.432
-0.308,-0.348,1.240,-153.015,152.161,-255.859
-0.470,-0.372,1.346,-162.292,150.085,-266.174
-0.595,-0.366,1.475,-163.086,147.339,-271.484
-0.737,-0.366,1.573,-153.259,144.836,-268.982
-0.883,-0.372,1.626,-134.827,141.174,-261.475
-0.992,-0.360,1.630,-113.831,134.766,-254.211
-1.110,-0.332,1.564,-94.299,127.441,-250.366
-1.200,-0.308,1.464,-82.886,121.460,-252.808
-1.234,-0.237,1.391,-84.351,116.028,-259.888
-1.208,-0.175,1.370,-95.581,112.000,-269.409
-1.150,-0.097,1.415,-109.009,109.863,-280.457
-1.098,-0.057,1.435,-117.920,104.004,-286.072
-1.096,-0.038,1.431,-114.868,93.506,-280.640
-1.090,-0.022,1.400,-93.689,81.482,-265.137
-1.076,-0.025,1.345,-67.017,69.763,-246.216
-1.063,-0.064,1.305,-49.805,60.425,-230.164
-1.039,-0.106,1.229,-46.265,53.284,-220.642
-1.012,-0.156,1.199,-52.063,48.950,-218.689
-0.990,-0.172,1.166,-61.523,42.664,-220.886
-0.952,-0.165,1.104,-68.970,39.185,-223.755
-0.923,-0.123,1.094,-70.313,34.119,-225.708
-0.886,-0.047,1.078,-66.284,27.161,-224.976
-0.861,0.032,1.047,-60.486,19.653,-219.177
-0.838,0.079,1.012,-56.641,11.414,-209.534
-0.852,0.069,0.992,-55.481,5.676,-198.120
-0.860,0.025,0.982,-54.749,0.671,-187.744
-0.861,-0.012,0.969,-52.002,-4.333,-181.030
-0.846,-0.035,0.953,-48.279,-9.949,-178.589
-0.825,-0.053,0.921,-45.959,-15.808,-179.260
-0.789,-0.058,0.867,-45.837,-21.790,-181.946
-0.732,-0.034,0.824,-46.753,-26.611,-185.608
-0.693,0.010,0.806,-46.509,-28.381,-187.195
-0.674,0.054,0.797,-43.396,-28.076,-183.228
-0.660,0.077,0.787,-38.269,-28.503,-173.706
-0.661,0.083,0.795,-31.128,-29.236,-160.400
-0.659,0.059,0.805,-23.743,-29.114,-147.583
-0.658,0.044,0.788,-19.714,-30.823,-138.306
-0.640,0.047,0.770,-20.508,-32.654,-134.094
-0.630,0.058,0.766,-25.024,-32.104,-133.423
-0.618,0.081,0.772,-30.762,-32.166,-134.155
-0.604,0.117,0.791,-34.424,-33.325,-134.399
-0.605,0.139,0.819,-32.898,-34.485,-132.812
-0.597,0.185,0.855,-26.367,-37.354,-128.723
-0.597,0.221,0.860,-16.724,-41.382,-122.070
-0.584,0.301,0.856,-6.714,-45.410,-111.633
-0.589,0.370,0.831,-1.526,-46.875,-96.069
-0.591,0.401,0.796,-5.066,-47.180,-76.782
-0.594,0.381,0.787,-12.512,-46.936,-57.617
-0.595,0.311,0.781,-18.677,-44.189,-40.710
-0.603,0.219,0.776,-19.958,-42.053,-28.381
-0.605,0.150,0.783,-16.968,-41.565,-21.729
-0.619,0.109,0.798,-11.108,-39.856,-19.714
-0.636,0.079,0.817,-5.615,-37.964,-20.081
-0.650,0.061,0.838,-1.282,-36.499,-22.217
-0.664,0.068,0.853,2.502,-34.424,-25.085
-0.677,0.108,0.865,4.517,-31.616,-27.710
-0.694,0.169,0.872,2.258,-28.870,-28.381
-0.704,0.207,0.861,-5.920,-27.710,-26.306
-0.702,0.212,0.844,-15.320,-26.978,-23.071
-0.700,0.211,0.843,-20.142,-23.743,-19.592
-0.701,0.208,0.866,-17.822,-18.799,-14.832

-1.656,0.439,0.752,37.598,56.152,46.875
-1.854,0.567,0.767,37.292,68.970,63.416
-1.999,0.739,0.791,39.917,81.177,86.121
-2.095,0.920,0.880,46.570,93.567,114.014
-2.154,1.116,1.103,53.040,104.370,147.766
-2.204,1.249,1.431,57.800,103.943,190.430
-2.245,1.243,1.692,62.134,86.365,240.723
-2.238,1.148,1.790,69.275,52.002,291.199
-2.194,1.073,1.730,82.031,13.489,334.045
-2.161,1.042,1.619,95.398,-15.564,367.493
-2.078,1.055,1.492,101.990,-34.668,393.738
-2.063,1.060,1.465,103.088,-45.532,416.626
-2.021,1.064,1.417,102.051,-58.533,439.514
-2.002,1.074,1.400,107.483,-71.228,459.412
-2.029,1.161,1.490,121.643,-84.473,473.206
-2.089,1.305,1.624,136.292,-100.464,480.164
-2.039,1.449,1.795,145.630,-120.972,481.384
-1.912,1.622,2.023,152.344,-140.686,479.858
-1.732,1.778,2.258,157.532,-161.743,481.018
-1.485,1.838,2.394,160.889,-189.697,486.694
-1.214,1.821,2.406,166.687,-218.689,491.577
-0.964,1.772,2.372,175.720,-239.380,490.845
-0.764,1.731,2.290,183.167,-252.625,481.445
-0.533,1.748,2.243,187.378,-261.841,465.332
-0.241,1.758,2.165,187.988,-267.578,447.998
0.117,1.712,2.026,184.998,-272.644,433.838
0.550,1.557,1.900,179.871,-273.621,423.767
1.034,1.228,1.803,171.387,-267.456,415.405
1.399,0.733,1.636,162.170,-255.798,408.386
1.631,0.315,1.450,160.095,-238.892,394.958
1.866,-0.042,1.336,165.344,-218.628,363.831
2.060,-0.186,1.212,178.711,-194.275,307.190
2.167,0.000,1.099,192.383,-160.339,232.300
2.295,0.383,0.978,189.087,-123.047,164.124
2.503,0.807,0.866,167.847,-89.111,121.399
2.556,0.974,0.993,140.930,-61.829,105.164
2.558,0.879,1.175,115.173,-60.059,95.886
2.588,0.708,1.081,90.942,-76.538,79.712
2.493,0.568,0.822,63.965,-89.722,56.763
2.456,0.480,0.461,33.447,-105.347,26.733
2.418,0.533,0.042,-0.488,-107.666,1.465
2.246,0.477,-0.245,-32.410,-93.445,-12.756
2.051,0.186,-0.410,-50.842,-67.261,-24.963
1.901,-0.048,-0.443,-54.932,-28.381,-38.025
1.713,-0.255,-0.375,-52.246,15.381,-48.645
1.545,-0.411,-0.233,-50.842,55.054,-55.969
1.398,-0.459,-0.035,-55.603,83.740,-62.378
1.249,-0.548,0.129,-65.552,101.929,-66.223
1.114,-0.612,0.255,-77.881,114.441,-75.073
1.005,-0.651,0.342,-87.891,125.488,-86.548
0.897,-0.646,0.445,-95.581,139.526,-101.685
0.792,-0.621,0.566,-101.257,156.311,-117.493
0.675,-0.566,0.681,-106.750,174.377,-133.728
0.561,-0.480,0.821,-115.234,192.932,-152.222
0.418,-0.348,1.057,-126.648,208.557,-171.265
0.232,-0.243,1.295,-138.062,215.393,-187.256
0.060,-0.145,1.469,-148.743,209.656,-200.745
-0.106,-0.054,1.574,-154.114,198.364,-211.670
-0.273,0.005,1.629,-151.184,186.401,-217.712
-0.395,0.031,1.610,-141.296,173.950,-218.018
-0.480,0.048,1.549,-128.601,162.964,-215.027
-0.535,0.046,1.497,-115.479,157.898,-210.693
-0.584,0.023,1.465,-107.178,159.363,-208.435
-0.603,0.009,1.462,-104.553,164.246,-210.449
-0.631,-0.001,1.495,-105.347,169.739,-214.294
-0.699,-0.049,1.573,-107.300,173.035,-215.820
-0.770,-0.148,1.635,-110.168,169.861,-213.257
-0.814,-0.256,1.691,-114.197,159.668,-212.830
-0.871,-0.348,1.709,-119.690,146.851,-216.492
-0.908,-0.400,1.646,-128.540,131.348,-224.792
-0.889,-0.406,1.547,-135.742,112.854,-234.985
-0.852,-0.386,1.451,-132.568,97.595,-245.117
-0.821,-0.314,1.344,-121.460,89.966,-253.540
-0.801,-0.212,1.247,-110.352,86.487,-260.559
-0.785,-0.086,1.192,-104.980,86.731,-267.517
-0.816,0.015,1.182,-106.018,90.637,-270.203
-0.855,0.082,1.210,-110.535,91.736,-264.526
-0.925,0.087,1.252,-116.211,87.708,-253.479
-1.011,0.001,1.250,-120.667,77.148,-240.173
-1.029,-0.096,1.206,-120.544,60.608,-229.248
-1.041,-0.162,1.153,-113.342,46.692,-224.976
-1.040,-0.167,1.107,-98.755,38.208,-223.999
-1.016,-0.118,1.063,-82.336,31.921,-224.060
-0.985,-0.054,1.018,-69.702,27.161,-223.694
-0.956,-0.003,0.986,-61.462,26.001,-223.145
-0.932,0.058,0.959,-59.509,28.625,-223.816
-0.916,0.126,0.961,-63.843,32.166,-224.121
-0.931,0.178,0.989,-71.350,34.302,-220.520
-0.947,0.191,1.036,-78.735,30.090,-211.731
-0.969,0.147,1.046,-80.688,19.958,-197.937
-0.971,0.072,1.015,-76.660,4.761,-183.777
-0.944,0.027,0.954,-66.956,-10.193,-172.852
-0.927,0.017,0.890,-54.260,-21.179,-165.527
-0.896,0.020,0.812,-44.128,-27.771,-159.485
-0.870,0.017,0.744,-39.429,-30.212,-154.968
-0.845,0.031,0.704,-38.025,-26.917,-153.198
-0.826,0.056,0.715,-37.842,-20.020,-151.184
-0.819,0.092,0.769,-37.659,-11.353,-146.729
-0.819,0.122,0.856,-36.682,-5.737,-139.832
-0.824,0.126,0.950,-35.156,-5.493,-130.676
-0.827,0.096,1.024,-33.447,-11.047,-120.422
-0.792,0.062,1.067,-30.945,-21.790,-112.000
-0.775,0.054,1.047,-28.625,-34.607,-107.117
-0.736,0.070,1.019,-27.771,-45.593,-103.638
-0.679,0.105,0.950,-25.818,-53.223,-100.403
-0.651,0.162,0.875,-23.437,-52.612,-95.276
-0.637,0.226,0.846,-20.996,-46.753,-87.036
-0.639,0.263,0.832,-18.066,-39.673,-73.120
-0.635,0.254,0.836,-16.235,-34.424,-54.626
-0.629,0.189,0.858,-14.526,-32.227,-35.950
-0.619,0.097,0.890,-11.963,-33.386,-21.851
-0.589,0.042,0.913,-8.606,-36.560,-15.137
-0.563,0.011,0.905,-6.104,-41.077,-12.390
-0.532,0.011,0.890,-3.723,-44.617,-12.939
-0.504,0.034,0.879,-0.732,-44.128,-15.808
-0.484,0.083,0.862,1.892,-40.344,-18.188
-0.477,0.126,0.853,1.892,-34.668,-19.043
-0.474,0.161,0.848,-0.793,-28.503,-18.188
-0.466,0.183,0.838,-3.235,-24.658,-14.526

-1.458,0.368,1.135,53.223,87.708,99.976
-1.625,0.381,1.384,59.326,94.299,124.268
-1.761,0.354,1.535,57.922,86.182,148.132
-1.907,0.292,1.579,53.406,73.242,167.297
-2.036,0.238,1.563,49.438,60.669,180.115
-2.142,0.269,1.543,49.744,49.194,188.965
-2.213,0.413,1.520,55.237,41.016,199.890
-2.263,0.604,1.463,64.331,34.302,222.595
-2.314,0.767,1.434,77.576,29.724,257.507
-2.407,0.904,1.430,95.764,26.123,300.537
-2.581,1.019,1.399,112.549,20.447,341.431
-2.712,1.089,1.426,121.094,12.512,372.925
-2.722,1.159,1.585,122.192,5.920,391.602
-2.668,1.270,1.847,121.887,-0.610,403.564
-2.750,1.419,2.146,131.470,-15.564,418.640
-2.616,1.594,2.346,153.320,-46.875,439.087
-2.437,1.738,2.464,181.030,-89.905,463.013
-2.206,1.865,2.468,204.346,-132.812,483.704
-1.897,2.040,2.404,217.773,-169.678,491.943
-1.510,2.208,2.304,219.849,-200.989,494.202
-1.147,2.274,2.193,218.933,-222.656,498.962
-0.788,2.393,2.158,228.882,-232.117,501.587
-0.411,2.458,2.164,242.737,-237.122,503.418
-0.004,2.323,2.121,247.070,-248.169,506.348
0.484,2.048,2.065,243.835,-263.855,505.981
0.886,1.524,1.826,234.680,-278.625,502.869
1.184,0.931,1.483,212.463,-284.790,491.699
1.532,0.542,1.354,187.805,-271.362,460.632
1.829,0.381,1.258,178.467,-238.953,410.950
2.037,0.414,1.092,181.885,-207.581,354.797
2.283,0.484,0.916,177.734,-186.584,299.316
2.562,0.560,0.879,155.640,-160.828,238.525
2.749,0.729,0.891,131.653,-127.747,169.678
2.916,1.041,0.917,118.042,-98.755,105.347
2.972,1.347,0.945,111.450,-79.041,60.608
2.891,1.465,0.984,100.098,-79.285,36.194
2.737,1.361,0.934,75.012,-102.600,17.334
2.664,1.139,0.634,34.912,-124.817,-6.714
2.547,0.886,0.215,-12.390,-128.235,-36.621
2.404,0.659,-0.091,-54.016,-114.746,-66.589
2.194,0.478,-0.277,-75.867,-82.825,-87.036
1.947,0.334,-0.338,-76.355,-40.955,-97.717
1.695,0.190,-0.233,-64.575,1.709,-104.553
1.449,0.033,-0.050,-50.659,41.504,-114.075
1.229,-0.053,0.163,-47.424,71.655,-129.944
1.002,-0.100,0.375,-58.533,90.576,-151.611
0.828,-0.081,0.540,-79.102,100.708,-176.331
0.682,-0.021,0.637,-101.074,106.567,-197.327
0.550,0.059,0.663,-119.995,112.549,-212.402
0.419,0.134,0.666,-137.329,122.498,-220.398
0.283,0.174,0.724,-149.353,138.123,-223.755
0.137,0.167,0.832,-151.489,157.410,-222.229
-0.016,0.102,1.002,-146.240,173.279,-217.102
-0.159,0.018,1.227,-138.428,183.960,-212.219
-0.381,-0.104,1.469,-131.409,188.904,-211.182
-0.674,-0.242,1.614,-128.662,185.059,-214.233
-0.936,-0.329,1.674,-131.531,171.448,-225.464
-1.081,-0.328,1.699,-138.489,154.175,-245.911
-1.167,-0.253,1.649,-144.531,135.559,-268.433
-1.186,-0.121,1.558,-144.714,117.188,-283.691
-1.188,-0.016,1.479,-137.146,106.384,-284.729
-1.188,0.019,1.391,-123.840,107.910,-272.827
-1.193,-0.022,1.357,-107.971,116.455,-253.540
-1.153,-0.087,1.405,-90.759,125.916,-230.225
-1.158,-0.168,1.533,-70.984,136.475,-209.412
-1.167,-0.253,1.695,-54.077,139.404,-192.871
-1.182,-0.322,1.817,-43.884,128.052,-185.364
-1.182,-0.358,1.879,-42.908,105.713,-188.293
-1.160,-0.367,1.858,-51.880,78.674,-200.195
-1.113,-0.333,1.773,-64.209,52.368,-219.421
-1.048,-0.262,1.656,-73.730,30.457,-239.807
-0.958,-0.168,1.519,-79.834,13.550,-255.066
-0.902,-0.090,1.361,-83.252,1.526,-262.085
-0.855,-0.016,1.195,-84.656,-5.249,-261.475
-0.808,0.001,1.037,-83.740,-8.484,-253.906
-0.822,0.005,0.940,-79.163,-10.010,-241.394
-0.793,-0.039,0.878,-69.763,-8.301,-225.159
-0.792,-0.095,0.868,-55.786,-4.822,-209.045
-0.797,-0.138,0.879,-42.114,-2.686,-197.327
-0.813,-0.152,0.910,-33.508,-2.380,-192.322
-0.833,-0.154,0.914,-32.715,-5.127,-192.871
-0.838,-0.136,0.894,-37.537,-10.132,-197.388
-0.832,-0.079,0.871,-44.678,-15.381,-204.285
-0.841,-0.014,0.864,-50.049,-17.334,-210.693
-0.844,0.074,0.859,-52.368,-21.057,-212.952
-0.852,0.129,0.819,-50.415,-24.719,-207.764
-0.855,0.164,0.790,-43.518,-27.344,-195.190
-0.851,0.184,0.763,-33.020,-26.733,-177.673
-0.859,0.210,0.771,-23.132,-24.902,-158.020
-0.855,0.191,0.778,-18.494,-24.353,-138.062
-0.849,0.142,0.787,-18.372,-26.794,-122.742
-0.833,0.110,0.766,-20.081,-30.762,-114.319
-0.802,0.098,0.741,-22.217,-34.546,-111.206
-0.774,0.112,0.702,-24.292,-36.560,-110.413
-0.743,0.160,0.678,-25.635,-35.889,-109.680
-0.727,0.188,0.674,-23.437,-32.715,-106.384
-0.709,0.233,0.668,-16.174,-29.480,-99.182
-0.689,0.269,0.677,-6.104,-26.245,-87.769
-0.674,0.282,0.707,1.160,-22.644,-73.792
-0.675,0.253,0.713,2.075,-20.752,-59.875
-0.658,0.196,0.704,-2.930,-22.034,-49.194
-0.638,0.157,0.689,-10.559,-24.475,-44.678
-0.614,0.141,0.694,-17.944,-24.780,-44.189
-0.605,0.144,0.715,-22.705,-24.292,-43.091
-0.595,0.139,0.740,-23.376,-25.574,-39.856
-0.590,0.137,0.757,-18.005,-29.053,-33.997
-0.592,0.143,0.760,-7.751,-32.532,-26.550
-0.591,0.143,0.755,1.709,-34.241,-20.691
-0.600,0.159,0.747,6.287,-34.729,-17.578
-0.596,0.164,0.747,4.028,-34.729,-18.127
-0.601,0.157,0.728,-3.357,-33.142,-20.813
-0.591,0.171,0.728,-10.681,-29.968,-24.963
-0.597,0.189,0.737,-14.160,-25.452,-27.466
-0.601,0.198,0.740,-13.184,-21.667,-26.428
-0.595,0.210,0.746,-8.362,-19.348,-23.376
-0.591,0.222,0.771,-0.916,-16.174,-19.409
-0.592,0.231,0.794,7.996,-11.841,-14.832
-0.586,0.243,0.815,13.611,-9.033,-11.658
-0.583,0.250,0.841,15.137,-6.470,-10.010

-1.435,0.383,0.933,14.221,59.326,39.429
-1.548,0.462,0.944,13.672,62.012,54.260
-1.661,0.527,0.965,16.479,65.430,74.097
-1.783,0.567,1.001,23.132,71.655,97.778
-1.906,0.634,1.088,29.419,78.369,122.131
-2.026,0.730,1.182,33.752,81.055,146.179
-2.105,0.862,1.261,37.292,79.285,171.875
-2.187,1.001,1.326,41.077,74.890,200.378
-2.284,1.129,1.344,46.204,67.444,230.713
-2.425,1.266,1.322,58.289,59.021,262.939
-2.599,1.456,1.286,75.317,51.208,292.908
-2.722,1.697,1.289,87.341,43.457,318.298
-2.754,1.963,1.434,91.370,33.875,340.393
-2.670,2.265,1.630,90.454,18.311,365.417
-2.547,2.468,1.817,92.346,-3.418,399.414
-2.334,2.529,1.946,103.333,-33.020,441.040
-2.097,2.527,2.029,123.962,-66.528,481.873
-1.871,2.452,2.093,147.888,-103.577,513.977
-1.618,2.359,2.078,165.894,-144.531,532.043
-1.335,2.359,1.982,173.401,-185.181,530.884
-0.984,2.431,1.888,166.321,-217.529,517.822
-0.621,2.484,1.857,156.189,-235.168,508.911
-0.313,2.395,1.826,157.349,-237.244,514.038
0.073,2.168,1.822,172.607,-237.244,527.405
0.455,1.818,1.734,206.848,-237.366,541.321
0.802,1.498,1.611,258.179,-234.436,548.401
1.168,1.237,1.535,302.673,-230.225,542.969
1.509,0.990,1.535,316.345,-218.811,525.024
1.685,0.738,1.539,293.701,-202.026,492.737
1.883,0.476,1.453,240.784,-191.589,448.364
2.177,0.263,1.175,181.641,-183.350,391.052
2.526,0.169,0.808,133.118,-166.199,327.637
2.821,0.245,0.505,104.614,-130.249,262.695
2.997,0.576,0.536,102.600,-72.388,203.186
2.905,0.882,0.994,118.225,-17.761,157.532
2.755,1.069,1.352,136.047,-6.165,119.995
2.627,1.148,1.379,127.869,-15.137,85.022
2.499,1.277,1.146,84.839,-38.574,40.588
2.457,1.463,0.713,17.761,-67.566,-2.014
2.284,1.422,0.327,-50.781,-90.820,-25.208
2.117,1.037,0.029,-98.816,-110.046,-40.894
2.043,0.709,-0.178,-120.422,-105.957,-57.373
1.849,0.396,-0.302,-123.840,-77.820,-70.068
1.599,0.075,-0.364,-115.417,-38.757,-77.393
1.404,-0.074,-0.338,-103.577,-1.770,-88.928
1.205,-0.230,-0.277,-94.421,33.752,-97.961
1.028,-0.332,-0.154,-92.651,68.542,-112.305
0.877,-0.395,0.000,-98.450,98.206,-129.944
0.730,-0.330,0.236,-112.183,121.460,-148.743
0.586,-0.264,0.479,-135.437,136.047,-162.048
0.450,-0.284,0.643,-166.504,145.874,-168.701
0.381,-0.325,0.771,-194.519,152.954,-176.758
0.291,-0.295,0.943,-204.590,165.283,-188.721
0.181,-0.228,1.142,-190.552,182.922,-197.632
0.052,-0.179,1.362,-161.926,195.557,-198.486
-0.105,-0.139,1.615,-133.484,201.477,-192.444
-0.296,-0.161,1.818,-117.188,199.341,-185.852
-0.478,-0.228,1.917,-118.713,185.791,-184.937
-0.601,-0.334,1.910,-133.667,164.612,-194.153
-0.680,-0.436,1.827,-152.588,143.921,-212.341
-0.701,-0.494,1.711,-164.307,128.052,-234.924
-0.689,-0.475,1.602,-162.842,117.737,-257.141
-0.645,-0.350,1.520,-149.841,112.793,-275.635
-0.618,-0.163,1.463,-131.470,113.953,-286.072
-0.616,0.034,1.443,-114.075,118.835,-283.997
-0.644,0.196,1.515,-96.924,127.563,-272.400
-0.718,0.273,1.634,-84.045,135.071,-252.319
-0.798,0.241,1.737,-78.308,131.409,-227.600
-0.845,0.130,1.773,-77.332,117.188,-207.336
-0.882,0.020,1.740,-78.613,100.830,-198.364
-0.889,-0.083,1.664,-79.895,86.853,-199.219
-0.861,-0.141,1.589,-81.482,75.928,-209.045
-0.851,-0.135,1.508,-82.092,68.176,-224.915
-0.819,-0.087,1.442,-82.153,62.683,-239.624
-0.775,-0.005,1.384,-80.872,56.274,-250.183
-0.736,0.092,1.335,-77.026,52.063,-254.761
-0.736,0.199,1.301,-74.036,53.101,-252.014
-0.750,0.270,1.311,-72.571,53.894,-242.920
-0.772,0.273,1.305,-73.730,51.086,-228.027
-0.797,0.215,1.302,-75.439,43.396,-211.243
-0.824,0.112,1.295,-74.219,32.776,-197.021
-0.849,0.012,1.265,-70.251,20.020,-187.500
-0.861,-0.071,1.198,-65.369,7.874,-182.495
-0.864,-0.119,1.137,-61.462,-0.610,-182.434
-0.863,-0.134,1.084,-59.082,-5.615,-185.791
-0.858,-0.128,1.038,-58.899,-10.193,-190.247
-0.845,-0.105,0.996,-56.580,-13.916,-193.176
-0.838,-0.057,0.956,-49.805,-14.832,-193.787
-0.829,0.013,0.940,-43.884,-15.442,-192.200
-0.817,0.094,0.927,-42.358,-17.883,-187.561
-0.805,0.161,0.927,-45.166,-21.301,-180.176
-0.795,0.206,0.938,-48.340,-24.658,-169.678
-0.794,0.232,0.958,-48.950,-29.907,-156.555
-0.782,0.220,0.941,-46.326,-38.452,-141.418
-0.750,0.182,0.901,-40.222,-48.035,-126.587
-0.722,0.137,0.858,-33.508,-55.481,-116.211
-0.689,0.113,0.825,-28.992,-59.998,-110.474
-0.662,0.090,0.807,-26.794,-61.401,-109.070
-0.636,0.095,0.810,-26.611,-59.448,-110.962
-0.613,0.109,0.777,-28.137,-57.251,-113.281
-0.615,0.133,0.788,-30.884,-54.443,-113.831
-0.589,0.166,0.823,-33.752,-55.542,-111.450
-0.588,0.191,0.849,-32.654,-57.129,-103.394
-0.572,0.221,0.868,-28.137,-61.035,-89.111
-0.566,0.216,0.874,-22.278,-64.148,-73.425
-0.572,0.220,0.878,-20.081,-64.636,-58.960
-0.571,0.198,0.879,-23.499,-65.735,-47.852
-0.571,0.165,0.867,-30.701,-66.223,-41.260
-0.569,0.127,0.859,-36.926,-65.247,-38.513
-0.556,0.114,0.845,-39.856,-63.477,-38.879
-0.545,0.119,0.829,-39.307,-60.303,-39.978
-0.523,0.139,0.808,-37.659,-55.725,-39.368
-0.501,0.156,0.792,-34.790,-48.889,-34.973
-0.489,0.174,0.797,-30.579,-38.757,-25.513
-0.474,0.161,0.847,-23.865,-29.297,-12.024
-0.477,0.124,0.911,-15.930,-21.790,1.404
-0.478,0.110,0.964,-9.521,-17.700,11.780
-0.476,0.073,0.981,-7.263,-17.700,17.639
-0.479,0.054,0.984,-8.484,-19.470,18.005

-1.378,0.143,1.200,9.399,70.313,78.430
-1.443,0.175,1.240,9.827,66.284,88.257
-1.514,0.200,1.264,19.714,59.265,106.506
-1.581,0.210,1.231,39.490,51.758,133.789
-1.639,0.228,1.184,63.049,44.556,165.100
-1.697,0.224,1.107,79.712,40.405,195.496
-1.735,0.210,1.034,82.275,40.955,220.825
-1.795,0.222,0.979,71.716,45.959,237.061
-1.822,0.265,0.993,53.711,53.833,247.864
-1.855,0.308,1.068,37.781,58.716,260.742
-1.920,0.333,1.159,33.447,56.458,278.748
-1.997,0.342,1.203,53.284,45.471,304.749
-2.080,0.383,1.189,95.398,29.663,335.815
-2.166,0.532,1.161,140.564,16.541,363.342
-2.244,0.752,1.182,165.771,7.080,384.521
-2.328,0.946,1.250,162.537,-0.549,398.193
-2.365,1.119,1.334,141.235,-7.690,403.564
-2.373,1.280,1.443,121.643,-14.099,405.762
-2.311,1.416,1.546,116.821,-19.043,409.424
-2.203,1.564,1.752,132.874,-25.635,417.725
-2.057,1.681,2.061,168.152,-40.894,433.350
-1.893,1.831,2.382,206.726,-70.313,449.463
-1.684,1.991,2.595,228.882,-111.633,458.313
-1.395,2.094,2.653,224.854,-160.095,457.458
-1.005,2.131,2.587,200.806,-205.261,448.486
-0.562,2.139,2.429,173.157,-234.314,435.242
-0.156,2.104,2.222,152.405,-248.230,427.490
0.248,2.007,2.099,142.822,-250.488,428.101
0.638,1.835,2.109,149.658,-241.211,437.134
0.984,1.518,2.166,174.988,-229.919,453.186
1.250,1.141,2.151,211.365,-221.558,465.637
1.489,0.794,2.035,239.685,-217.896,459.045
1.822,0.452,1.890,239.868,-219.666,425.598
2.166,0.136,1.690,213.745,-216.919,365.601
2.338,-0.003,1.432,174.438,-198.853,282.654
2.422,0.169,1.176,130.066,-172.729,187.378
2.522,0.595,0.944,93.872,-146.301,98.511
2.684,1.012,0.759,77.942,-119.446,42.786
2.812,1.206,0.557,83.191,-88.867,23.804
2.729,1.251,0.345,97.656,-57.007,27.344
2.586,1.219,0.330,106.201,-39.612,30.334
2.531,1.081,0.359,95.764,-46.997,20.447
2.432,1.014,0.235,59.631,-64.575,-7.263
2.311,0.932,0.001,7.690,-69.824,-42.603
2.135,0.824,-0.246,-40.222,-62.439,-72.449
1.944,0.732,-0.469,-70.068,-40.466,-89.478
1.730,0.620,-0.587,-78.369,-4.089,-96.313
1.521,0.483,-0.545,-78.735,38.330,-94.971
1.330,0.318,-0.346,-78.613,81.116,-93.323
1.129,0.178,-0.075,-83.679,117.798,-97.351
0.935,0.046,0.247,-94.482,144.226,-107.117
0.739,-0.108,0.523,-107.422,160.889,-122.314
0.586,-0.180,0.769,-118.103,170.593,-144.043
0.457,-0.166,0.971,-126.221,173.767,-168.823
0.329,-0.178,1.077,-130.615,172.852,-188.354
0.202,-0.224,1.086,-135.010,172.241,-203.552
0.121,-0.261,1.078,-142.639,175.232,-218.872
0.035,-0.265,1.166,-155.762,183.716,-237.915
-0.105,-0.282,1.351,-171.997,195.312,-254.456
-0.236,-0.264,1.616,-181.702,204.285,-266.785
-0.417,-0.231,1.863,-177.917,204.468,-274.658
-0.595,-0.201,2.032,-159.485,189.697,-276.917
-0.749,-0.171,2.067,-129.089,163.269,-271.606
-0.861,-0.176,1.988,-98.389,134.521,-260.315
-0.971,-0.238,1.822,-77.942,110.107,-249.878
-1.025,-0.347,1.624,-73.547,91.003,-247.314
-0.987,-0.407,1.443,-80.078,76.660,-256.592
-0.939,-0.392,1.305,-90.820,72.937,-272.461
-0.884,-0.314,1.274,-99.670,78.857,-284.058
-0.828,-0.235,1.317,-98.999,87.952,-286.682
-0.796,-0.131,1.452,-87.402,96.008,-278.748
-0.831,-0.081,1.615,-67.322,95.337,-261.963
-0.861,-0.109,1.670,-46.143,79.285,-239.990
-0.845,-0.193,1.595,-29.541,53.162,-221.130
-0.816,-0.266,1.446,-21.179,28.564,-212.646
-0.783,-0.311,1.271,-23.071,11.963,-214.050
-0.726,-0.348,1.151,-33.325,4.395,-223.633
-0.657,-0.337,1.059,-47.241,3.174,-237.976
-0.587,-0.274,1.000,-57.800,4.028,-253.052
-0.552,-0.179,0.955,-60.059,5.920,-261.658
-0.536,-0.100,0.939,-54.810,8.789,-260.803
-0.551,-0.052,0.943,-44.250,12.024,-250.122
-0.585,-0.042,0.961,-33.630,13.245,-234.863
-0.615,-0.069,0.968,-27.893,9.460,-221.497
-0.641,-0.113,0.932,-27.893,2.625,-213.074
-0.658,-0.147,0.873,-32.166,-3.967,-210.754
-0.672,-0.154,0.813,-36.499,-9.583,-212.891
-0.662,-0.143,0.760,-37.537,-13.367,-215.271
-0.644,-0.110,0.729,-33.447,-12.756,-216.431
-0.631,-0.061,0.725,-27.161,-7.324,-215.576
-0.633,-0.003,0.750,-24.231,-0.732,-213.501
-0.648,0.046,0.807,-26.184,7.202,-208.801
-0.677,0.088,0.899,-30.457,13.916,-202.393
-0.711,0.114,0.975,-34.302,15.564,-194.702
-0.735,0.133,0.996,-37.170,10.315,-187.195
-0.742,0.152,1.002,-39.063,2.075,-180.603
-0.751,0.175,1.003,-40.344,-6.042,-174.561
-0.741,0.177,0.972,-41.138,-15.076,-168.213
-0.725,0.161,0.929,-40.833,-22.583,-161.743
-0.716,0.139,0.895,-38.513,-26.672,-157.349
-0.706,0.141,0.870,-35.095,-27.771,-155.518
-0.696,0.166,0.853,-31.677,-26.489,-154.785
-0.689,0.210,0.843,-29.968,-22.949,-154.175
-0.690,0.275,0.844,-30.396,-18.616,-151.611
-0.692,0.354,0.855,-33.936,-16.785,-145.813
-0.693,0.409,0.858,-38.940,-17.578,-134.583
-0.690,0.415,0.839,-42.969,-19.897,-119.873
-0.679,0.382,0.811,-43.518,-22.583,-104.004
-0.669,0.319,0.791,-40.161,-24.597,-88.806
-0.659,0.261,0.802,-33.203,-25.696,-76.721
-0.652,0.208,0.805,-24.109,-25.085,-69.092
-0.652,0.168,0.793,-18.433,-24.292,-65.308
-0.631,0.151,0.770,-16.907,-24.780,-65.491
-0.610,0.150,0.724,-20.203,-24.475,-69.275
-0.599,0.171,0.674,-26.489,-21.912,-73.181
-0.585,0.194,0.653,-30.212,-17.517,-75.256
-0.578,0.232,0.668,-28.870,-12.512,-74.158
-0.571,0.289,0.722,-22.949,-9.705,-70.313
-0.579,0.352,0.762,-17.395,-9.583,-61.401

-1.125,0.760,1.157,-2.502,118.469,8.667
-1.193,0.914,1.212,-4.395,119.812,21.667
-1.260,0.997,1.235,3.113,118.652,46.753
-1.320,1.036,1.246,20.264,116.699,80.261
-1.399,1.097,1.322,43.335,116.638,116.394
-1.500,1.050,1.375,60.547,117.554,153.748
-1.590,0.964,1.423,64.209,117.126,183.228
-1.767,0.930,1.505,57.739,112.366,201.904
-1.805,0.994,1.426,46.143,106.995,218.018
-1.870,1.178,1.444,50.537,108.948,243.591
-1.942,1.406,1.534,82.275,104.675,289.429
-2.028,1.562,1.566,134.094,94.482,357.605
-1.912,1.548,1.552,188.538,80.750,430.664
-2.497,1.609,1.492,214.600,73.975,491.638
-2.312,1.722,1.548,216.614,68.359,502.563
-2.359,2.047,1.725,194.641,59.387,505.859
-2.225,2.375,1.965,169.312,44.434,518.616
-2.046,2.687,2.168,175.964,12.939,551.941
-1.815,2.920,2.255,224.487,-29.602,606.750
-1.550,2.986,2.201,295.471,-74.829,668.701
-1.353,2.860,2.060,351.196,-112.976,717.346
-1.153,2.669,1.865,368.958,-143.494,735.901
-0.957,2.605,1.717,352.173,-164.124,724.365
-0.776,2.605,1.639,317.261,-173.401,694.946
-0.587,2.737,1.694,283.569,-171.875,656.616
-0.352,2.900,1.787,254.761,-166.748,616.943
-0.083,2.963,1.836,223.694,-164.917,583.069
0.264,2.989,1.848,211.487,-166.931,565.735
0.646,2.860,1.894,230.713,-166.260,575.500
0.966,2.522,1.780,256.775,-161.987,593.323
1.212,2.068,1.642,269.836,-157.654,595.581
1.449,1.480,1.632,258.179,-147.522,568.481
1.705,0.969,1.740,232.727,-132.080,503.540
1.879,0.670,1.842,196.411,-124.451,402.405
2.092,0.599,1.870,153.870,-132.141,280.212
2.394,0.809,1.701,129.150,-158.875,162.781
2.805,1.152,1.327,133.972,-187.744,73.486
3.239,1.474,0.922,139.160,-203.125,11.841
3.497,1.732,0.476,128.174,-198.914,-32.715
3.554,1.909,0.004,102.051,-184.143,-68.542
3.404,1.891,-0.308,67.505,-169.189,-92.285
3.186,1.652,-0.554,30.823,-155.884,-106.384
2.891,1.287,-0.795,-2.625,-130.432,-119.812
2.594,0.928,-0.987,-28.564,-89.294,-139.709
2.289,0.660,-0.970,-46.692,-36.316,-166.077
2.002,0.486,-0.788,-54.443,15.808,-192.932
1.738,0.426,-0.522,-54.688,65.308,-217.041
1.503,0.650,-0.081,-61.707,111.816,-238.403
1.226,0.854,0.416,-93.079,146.362,-249.207
0.925,0.842,0.796,-137.817,159.729,-251.648
0.658,0.750,1.041,-167.053,162.476,-254.822
0.457,0.689,1.200,-171.631,167.053,-264.282
0.258,0.683,1.332,-164.307,174.316,-277.588
0.059,0.696,1.432,-155.762,182.861,-293.518
-0.136,0.696,1.522,-154.846,189.087,-311.096
-0.358,0.671,1.642,-163.269,192.993,-329.407
-0.586,0.615,1.817,-175.720,193.604,-344.727
-0.801,0.550,2.074,-186.707,190.552,-356.628
-0.999,0.543,2.349,-191.772,180.542,-363.098
-1.155,0.629,2.555,-184.814,161.804,-361.694
-1.311,0.719,2.614,-167.480,135.193,-349.121
-1.439,0.768,2.504,-146.362,103.699,-329.712
-1.524,0.763,2.276,-127.136,71.899,-310.486
-1.601,0.674,2.025,-116.089,43.396,-294.067
-1.651,0.500,1.807,-115.540,24.048,-280.212
-1.696,0.177,1.625,-120.544,13.489,-269.653
-1.676,-0.059,1.569,-122.314,4.028,-265.747
-1.603,-0.282,1.505,-114.929,-4.028,-260.071
-1.523,-0.399,1.518,-96.802,-4.883,-257.874
-1.421,-0.386,1.613,-77.271,-4.517,-257.812
-1.326,-0.268,1.756,-61.707,-9.583,-257.507
-1.269,-0.181,1.828,-56.030,-25.146,-252.502
-1.218,-0.163,1.759,-56.763,-50.537,-244.446
-1.145,-0.182,1.609,-59.631,-81.848,-238.770
-1.032,-0.178,1.378,-59.265,-110.840,-238.403
-0.948,-0.138,1.157,-57.434,-129.089,-241.333
-0.871,-0.058,0.956,-56.824,-136.902,-244.141
-0.838,-0.016,0.803,-54.810,-136.292,-240.662
-0.823,-0.021,0.692,-46.326,-131.958,-231.018
-0.831,-0.029,0.618,-31.250,-123.901,-218.445
-0.822,-0.030,0.570,-13.306,-116.150,-205.872
-0.804,-0.042,0.556,1.770,-108.337,-195.007
-0.790,-0.050,0.578,10.498,-100.464,-186.340
-0.769,-0.003,0.633,10.437,-95.703,-180.908
-0.756,0.053,0.668,4.578,-95.215,-174.438
-0.735,0.087,0.650,-3.418,-98.816,-165.283
-0.695,0.121,0.588,-9.094,-101.807,-155.273
-0.638,0.170,0.520,-10.803,-98.694,-144.226
-0.558,0.207,0.462,-10.681,-90.027,-131.165
-0.536,0.221,0.455,-6.165,-74.524,-113.708
-0.512,0.148,0.499,2.686,-52.612,-91.614
-0.534,0.038,0.630,15.076,-31.372,-67.810
-0.568,-0.081,0.782,28.564,-18.677,-48.340
-0.594,-0.193,0.884,38.940,-18.799,-36.438
-0.607,-0.252,0.908,44.556,-26.184,-35.156
-0.614,-0.243,0.880,45.166,-33.630,-42.603
-0.623,-0.180,0.827,40.833,-38.025,-53.955
-0.616,-0.078,0.752,32.349,-36.865,-64.453
-0.599,0.005,0.721,23.376,-29.724,-69.946
-0.607,0.080,0.733,16.663,-18.921,-67.017
-0.638,0.138,0.814,17.700,-9.705,-58.350
-0.681,0.170,0.888,29.419,-6.775,-44.800
-0.698,0.169,0.902,45.044,-12.024,-30.029
-0.707,0.158,0.867,54.321,-21.790,-20.142
-0.701,0.136,0.809,52.734,-30.334,-18.433
-0.704,0.125,0.759,45.410,-34.729,-25.269
-0.704,0.143,0.709,39.124,-35.645,-35.828
-0.694,0.175,0.652,35.767,-34.607,-45.410
-0.668,0.211,0.589,33.936,-31.067,-52.551
-0.657,0.252,0.552,31.494,-25.085,-55.847
-0.634,0.292,0.583,31.128,-17.822,-55.847
-0.646,0.335,0.658,31.860,-12.512,-51.575
-0.667,0.360,0.718,30.518,-13.489,-43.518
-0.667,0.337,0.739,28.137,-20.264,-32.898
-0.677,0.302,0.724,25.146,-27.466,-23.560
-0.684,0.254,0.689,23.437,-32.166,-17.212
-0.683,0.210,0.663,22.278,-35.278,-15.015
-0.687,0.183,0.649,20.630,-36.072,-17.090
-0.699,0.173,0.640,17.883,-35.645,-21.667

-1.366,0.558,0.845,4.517,83.740,56.458
-1.464,0.576,0.926,12.390,81.909,76.233
-1.540,0.593,0.980,17.029,80.017,98.267
-1.636,0.572,1.002,14.893,78.064,118.896
-1.706,0.547,1.031,4.883,79.529,136.414
-1.755,0.494,1.023,-7.324,84.717,152.832
-1.800,0.461,1.008,-17.090,93.140,168.457
-1.859,0.476,1.035,-20.691,103.210,184.814
-1.891,0.510,1.111,-13.367,109.985,209.473
-1.914,0.565,1.213,7.629,110.535,243.958
-1.994,0.604,1.315,36.560,103.271,286.377
-2.051,0.553,1.308,64.880,89.722,331.543
-2.155,0.530,1.244,83.008,74.768,366.516
-2.240,0.575,1.136,83.740,64.880,384.033
-2.345,0.718,1.049,66.711,61.218,387.756
-2.396,0.990,1.024,43.335,60.242,388.000
-2.357,1.243,1.066,37.109,58.594,402.405
-2.257,1.432,1.119,70.496,54.749,440.735
-2.204,1.692,1.218,142.090,46.082,494.690
-2.104,1.899,1.315,226.807,25.574,558.044
-1.914,2.121,1.292,288.147,-9.094,610.535
-1.698,2.369,1.066,297.241,-50.781,632.874
-1.375,2.567,0.750,252.258,-89.539,630.737
-1.024,2.703,0.474,190.796,-111.511,617.798
-0.733,2.838,0.393,149.963,-104.187,612.183
-0.469,2.910,0.521,141.296,-81.726,623.291
-0.159,2.897,0.899,163.574,-57.068,656.067
0.060,2.589,1.239,197.571,-39.856,706.726
0.247,2.016,1.450,228.394,-43.579,752.808
0.463,1.305,1.628,242.737,-58.594,775.513
0.784,0.465,1.843,229.065,-68.909,762.268
0.937,-0.389,1.954,202.209,-70.435,706.238
0.964,-0.796,2.111,185.730,-60.608,604.553
0.955,-0.751,2.285,192.566,-48.218,463.501
1.077,-0.327,2.435,211.853,-46.326,310.852
1.428,0.392,2.616,221.436,-67.749,169.312
1.897,1.178,2.618,214.355,-115.295,54.810
2.382,1.802,2.180,189.392,-172.974,-25.452
2.771,2.230,1.391,147.095,-220.825,-80.261
2.981,2.412,0.529,95.520,-244.141,-118.225
3.025,2.387,-0.201,50.781,-236.633,-135.620
2.940,2.122,-0.686,18.127,-200.378,-133.240
2.743,1.734,-0.872,-3.357,-142.090,-123.169
2.449,1.332,-0.836,-15.076,-80.505,-117.432
2.156,1.014,-0.668,-21.484,-31.189,-126.770
1.852,0.767,-0.468,-34.668,0.244,-151.062
1.609,0.673,-0.304,-61.829,20.325,-188.354
1.397,0.714,-0.180,-98.938,35.645,-231.201
1.239,0.844,-0.053,-135.742,53.833,-265.442
1.069,0.966,0.083,-168.152,79.346,-282.227
0.874,0.948,0.258,-197.510,113.403,-285.278
0.642,0.864,0.522,-214.539,152.771,-287.170
0.400,0.802,0.874,-215.942,188.232,-291.870
0.160,0.751,1.307,-207.947,206.848,-297.424
-0.074,0.681,1.659,-200.867,202.759,-301.819
-0.291,0.518,1.836,-198.669,182.129,-305.725
-0.424,0.335,1.864,-203.186,155.334,-316.895
-0.487,0.239,1.872,-209.473,133.118,-340.332
-0.520,0.309,1.930,-208.252,119.995,-367.798
-0.561,0.461,1.967,-193.359,114.990,-383.850
-0.623,0.614,1.974,-173.035,113.831,-382.141
-0.717,0.692,2.031,-156.860,114.868,-366.028
-0.944,0.563,2.093,-149.353,112.854,-341.797
-1.176,0.284,2.082,-147.339,99.121,-319.092
-1.328,0.019,2.044,-146.973,75.989,-311.218
-1.378,-0.158,1.941,-148.010,46.448,-320.251
-1.331,-0.114,1.802,-140.808,15.991,-338.501
-1.263,0.006,1.689,-121.216,-4.517,-353.394
-1.200,0.187,1.604,-96.130,-20.325,-358.215
-1.132,0.305,1.463,-71.106,-27.100,-348.633
-1.126,0.363,1.393,-44.189,-21.484,-334.045
-1.102,0.454,1.429,-22.583,-11.536,-314.087
-1.113,0.448,1.492,-19.348,-4.150,-289.185
-1.150,0.287,1.548,-33.386,-3.418,-262.878
-1.191,0.044,1.578,-48.096,-10.315,-240.601
-1.179,-0.159,1.564,-52.002,-27.954,-228.088
-1.127,-0.310,1.482,-47.485,-51.575,-225.891
-1.041,-0.332,1.356,-39.429,-74.646,-231.567
-0.948,-0.305,1.218,-31.616,-92.224,-239.380
-0.877,-0.261,1.091,-23.376,-101.379,-243.958
-0.830,-0.210,0.997,-12.695,-104.492,-244.812
-0.801,-0.168,0.920,-1.892,-103.882,-244.080
-0.774,-0.111,0.865,7.751,-101.379,-243.042
-0.759,-0.018,0.840,13.306,-96.619,-242.920
-0.743,0.098,0.814,8.972,-90.393,-241.638
-0.749,0.174,0.779,-5.188,-84.534,-236.450
-0.747,0.202,0.753,-20.630,-79.895,-227.661
-0.760,0.198,0.776,-29.480,-76.294,-216.125
-0.779,0.179,0.812,-28.687,-75.317,-202.820
-0.783,0.175,0.844,-20.081,-78.979,-189.392
-0.771,0.184,0.854,-9.521,-86.731,-178.589
-0.761,0.189,0.822,-1.709,-94.910,-170.532
-0.733,0.195,0.776,3.113,-101.685,-164.734
-0.696,0.200,0.715,5.920,-105.530,-161.255
-0.634,0.238,0.666,7.019,-103.943,-157.288
-0.606,0.274,0.618,5.554,-96.130,-149.780
-0.598,0.309,0.577,0.854,-85.022,-137.024
-0.580,0.324,0.582,-2.502,-74.158,-120.239
-0.587,0.303,0.619,-4.456,-63.354,-100.098
-0.583,0.269,0.696,-4.700,-56.702,-79.224
-0.608,0.200,0.754,-0.793,-55.237,-60.181
-0.610,0.150,0.784,6.042,-58.777,-44.006
-0.604,0.114,0.790,13.428,-65.735,-33.325
-0.590,0.100,0.762,18.066,-71.533,-27.893
-0.579,0.090,0.698,18.738,-74.707,-26.733
-0.570,0.106,0.618,17.029,-73.303,-28.320
-0.576,0.147,0.553,13.245,-66.589,-30.396
-0.582,0.198,0.515,7.019,-56.274,-30.640
-0.570,0.248,0.516,0.183,-45.471,-28.503
-0.610,0.275,0.546,-3.784,-34.729,-25.208
-0.619,0.297,0.605,-3.540,-25.635,-19.226
-0.637,0.309,0.667,1.770,-20.935,-11.414
-0.659,0.313,0.732,9.338,-19.592,-3.967
-0.675,0.308,0.768,14.343,-22.156,1.770
-0.678,0.313,0.764,15.320,-27.222,3.418
-0.676,0.313,0.727,13.184,-29.724,1.648
-0.666,0.316,0.673,9.094,-28.320,-2.380
-0.660,0.338,0.625,3.967,-22.827,-6.836
-0.660,0.345,0.593,0.061,-13.184,-9.460

-1.195,0.712,1.026,-31.433,99.182,-0.305
-1.294,0.773,1.160,-25.574,105.469,17.395
-1.415,0.772,1.284,-18.250,107.483,42.542
-1.486,0.702,1.358,-10.620,104.309,69.824
-1.561,0.611,1.391,-5.005,100.647,95.032
-1.662,0.522,1.397,0.427,99.609,115.051
-1.716,0.490,1.421,3.296,98.450,130.615
-1.784,0.509,1.446,1.099,95.154,143.982
-1.844,0.546,1.414,-0.610,90.698,159.424
-1.897,0.634,1.355,5.493,84.961,182.373
-1.963,0.680,1.305,22.339,79.773,214.050
-2.013,0.705,1.231,46.448,75.073,249.695
-2.070,0.745,1.166,70.618,72.815,283.875
-2.143,0.797,1.085,87.708,71.533,312.134
-2.258,0.926,1.007,93.384,73.975,333.130
-2.334,1.108,1.002,91.125,78.125,347.473
-2.372,1.344,1.103,89.783,79.224,361.877
-2.374,1.638,1.267,98.633,72.876,382.812
-2.324,1.903,1.382,118.225,54.565,415.833
-2.212,2.115,1.447,146.729,27.771,457.886
-2.038,2.274,1.493,183.350,-1.648,501.160
-1.799,2.339,1.487,213.501,-32.288,540.833
-1.515,2.357,1.426,226.440,-64.575,568.787
-1.239,2.365,1.358,223.083,-94.971,580.750
-0.959,2.393,1.296,208.374,-121.582,582.458
-0.650,2.439,1.243,190.002,-145.264,579.773
-0.304,2.485,1.201,181.519,-167.297,578.125
0.067,2.487,1.177,184.814,-182.007,583.374
0.422,2.384,1.107,194.763,-186.829,593.994
0.796,2.172,1.063,204.773,-186.890,606.384
1.158,1.808,0.994,213.196,-184.753,616.455
1.406,1.358,0.873,217.041,-178.101,616.516
1.669,0.925,0.809,208.862,-166.016,596.741
1.908,0.558,0.757,193.665,-151.428,556.274
2.071,0.326,0.733,176.025,-132.751,501.709
2.126,0.250,0.771,161.560,-109.741,433.594
2.130,0.298,0.864,151.611,-81.360,354.614
2.149,0.447,1.034,144.531,-55.054,274.353
2.154,0.655,1.182,138.550,-38.025,198.975
2.135,0.877,1.247,128.601,-38.757,131.531
2.136,1.052,1.210,108.582,-60.669,71.777
2.142,1.110,1.008,74.951,-85.876,17.334
2.088,1.054,0.690,31.921,-98.206,-32.349
1.976,0.964,0.332,-12.512,-97.351,-77.332
1.816,0.846,0.027,-50.110,-82.214,-114.685
1.613,0.701,-0.167,-75.073,-56.580,-140.686
1.383,0.581,-0.196,-84.045,-26.306,-157.166
1.144,0.499,-0.076,-79.041,6.042,-166.565
0.896,0.435,0.163,-70.801,37.537,-172.729
0.626,0.337,0.456,-71.472,60.852,-180.603
0.411,0.209,0.683,-81.787,71.716,-194.153
0.239,0.129,0.833,-97.839,76.599,-214.539
0.125,0.091,0.901,-119.568,82.214,-237.671
-0.008,0.087,0.928,-145.569,88.745,-258.545
-0.172,0.046,0.932,-171.875,96.802,-273.926
-0.289,-0.001,1.000,-191.284,104.370,-283.875
-0.432,-0.049,1.121,-191.284,108.521,-286.560
-0.555,-0.143,1.272,-168.335,111.633,-275.940
-0.656,-0.257,1.416,-133.118,113.586,-257.812
-0.742,-0.314,1.532,-99.426,114.197,-245.117
-0.799,-0.332,1.648,-77.820,109.985,-243.164
-0.859,-0.396,1.677,-75.317,96.619,-248.535
-0.910,-0.513,1.566,-86.548,77.087,-257.324
-0.904,-0.567,1.395,-98.877,58.289,-271.912
-0.859,-0.506,1.227,-106.262,44.250,-292.358
-0.818,-0.341,1.130,-106.384,38.330,-306.091
-0.812,-0.183,1.092,-98.206,42.297,-301.819
-0.841,-0.030,1.107,-81.970,49.377,-281.189
-0.879,0.008,1.161,-59.143,54.321,-249.756
-0.914,0.002,1.222,-35.400,54.443,-216.309
-0.964,-0.083,1.252,-16.296,49.866,-185.913
-0.998,-0.210,1.235,-6.226,40.222,-166.565
-0.997,-0.338,1.202,-6.531,29.419,-161.621
-0.954,-0.460,1.178,-14.282,20.996,-170.532
-0.898,-0.536,1.155,-22.888,14.709,-188.477
-0.843,-0.544,1.122,-27.832,10.681,-210.327
-0.776,-0.463,1.114,-29.785,8.972,-231.140
-0.741,-0.353,1.120,-31.189,7.141,-247.253
-0.712,-0.236,1.101,-32.288,3.662,-256.531
-0.711,-0.138,1.076,-32.715,-0.061,-258.240
-0.716,-0.070,1.073,-31.677,-6.165,-255.554
-0.733,-0.030,1.027,-27.466,-14.648,-248.901
-0.743,-0.009,0.959,-21.362,-23.315,-239.990
-0.745,-0.010,0.896,-15.747,-28.259,-232.727
-0.758,-0.029,0.849,-11.353,-28.564,-227.600
-0.762,-0.028,0.814,-5.737,-27.161,-222.961
-0.758,-0.036,0.779,1.221,-26.184,-216.797
-0.765,-0.051,0.740,6.042,-24.963,-211.243
-0.771,-0.049,0.723,5.615,-24.475,-207.642
-0.776,-0.035,0.724,1.770,-25.391,-206.726
-0.777,-0.003,0.734,-3.052,-27.161,-207.581
-0.781,0.032,0.750,-8.728,-29.419,-209.473
-0.791,0.058,0.761,-13.245,-33.936,-210.632
-0.791,0.104,0.778,-10.254,-39.856,-209.290
-0.779,0.158,0.773,-0.671,-44.861,-204.285
-0.781,0.201,0.734,8.850,-47.363,-195.496
-0.778,0.245,0.708,14.832,-45.776,-184.875
-0.782,0.266,0.702,16.541,-39.124,-173.950
-0.794,0.269,0.714,14.526,-30.518,-163.696
-0.798,0.271,0.743,10.376,-23.560,-155.090
-0.798,0.278,0.785,5.005,-18.921,-148.376
-0.802,0.281,0.828,-0.732,-19.409,-142.883
-0.797,0.284,0.834,-4.028,-24.780,-137.939
-0.786,0.300,0.811,-5.005,-32.471,-133.240
-0.781,0.307,0.773,-5.371,-39.490,-128.113
-0.780,0.303,0.732,-6.531,-44.617,-121.521
-0.773,0.298,0.689,-7.446,-47.363,-112.854
-0.761,0.290,0.651,-7.629,-47.180,-101.563
-0.744,0.281,0.625,-6.226,-44.434,-87.708
-0.726,0.267,0.601,-5.066,-39.917,-71.167
-0.720,0.240,0.582,-5.249,-35.034,-53.711
-0.714,0.187,0.599,-6.104,-29.419,-38.879
-0.714,0.133,0.641,-5.859,-24.597,-29.175
-0.718,0.095,0.688,-4.395,-22.705,-25.391
-0.727,0.095,0.721,-1.648,-23.560,-26.733
-0.723,0.120,0.768,-0.366,-26.672,-31.372
-0.727,0.153,0.781,-1.648,-32.410,-37.476
-0.708,0.190,0.756,-4.639,-38.940,-42.175
-0.694,0.221,0.715,-6.409,-41.626,-44.006

-1.316,0.513,0.968,7.446,115.540,59.631
-1.405,0.552,1.077,20.020,121.155,79.834
-1.519,0.579,1.179,27.405,123.962,102.417
-1.629,0.562,1.264,25.391,121.399,126.587
-1.721,0.560,1.294,17.151,114.197,150.513
-1.793,0.583,1.286,10.071,109.375,174.133
-1.869,0.588,1.252,6.409,106.384,199.158
-1.915,0.629,1.205,10.376,105.347,227.112
-1.943,0.675,1.145,24.292,106.995,258.972
-2.001,0.681,1.120,44.189,110.840,297.607
-2.042,0.657,1.091,64.697,113.831,340.027
-2.135,0.593,1.145,82.153,118.164,380.249
-2.255,0.477,1.259,91.431,123.352,415.344
-2.439,0.392,1.404,93.933,126.526,440.002
-2.617,0.399,1.546,92.712,122.742,452.271
-2.733,0.529,1.639,93.689,109.436,458.435
-2.704,0.757,1.697,108.582,91.675,464.417
-2.665,1.069,1.704,138.611,74.524,479.980
-2.507,1.347,1.658,178.406,54.565,506.409
-2.300,1.608,1.651,217.468,33.569,536.621
-2.083,1.668,1.691,240.356,18.982,563.782
-1.835,1.642,1.774,248.291,8.667,578.674
-1.578,1.718,1.873,253.357,-1.099,573.975
-1.349,1.972,1.873,254.700,-16.296,553.589
-1.011,2.449,1.803,254.272,-47.119,528.992
-0.566,2.802,1.623,252.075,-82.520,523.804
-0.107,2.821,1.408,245.972,-106.140,537.842
0.334,2.482,1.152,238.586,-115.784,552.124
0.639,1.933,0.995,232.849,-106.934,556.396
0.931,1.467,1.112,233.765,-78.613,536.011
1.218,1.105,1.387,236.755,-49.683,491.272
1.341,0.879,1.657,237.915,-34.424,430.359
1.550,1.012,1.911,248.718,-38.147,356.201
1.780,1.324,1.979,261.841,-64.636,278.992
2.081,1.490,1.791,260.132,-111.206,206.604
2.492,1.636,1.467,243.103,-154.785,131.897
2.810,1.778,1.013,201.782,-183.594,54.138
2.980,1.746,0.435,135.376,-201.660,-8.240
3.057,1.558,-0.153,73.730,-203.308,-49.744
2.928,1.330,-0.589,40.466,-178.833,-73.120
2.649,1.060,-0.805,37.109,-138.794,-82.520
2.310,0.846,-0.819,45.044,-97.473,-90.027
1.937,0.741,-0.636,42.908,-64.941,-102.173
1.581,0.646,-0.436,24.353,-46.021,-115.540
1.271,0.470,-0.321,-10.620,-37.048,-125.000
1.038,0.276,-0.283,-54.993,-28.809,-135.864
0.868,0.093,-0.251,-96.863,-12.329,-152.161
0.710,-0.045,-0.197,-127.869,10.925,-169.128
0.594,-0.094,-0.055,-145.935,36.499,-182.678
0.478,-0.116,0.133,-156.982,62.317,-192.810
0.361,-0.073,0.407,-165.222,85.510,-201.904
0.160,-0.021,0.694,-170.349,101.257,-210.876
-0.015,-0.001,0.989,-171.265,102.722,-218.628
-0.174,-0.047,1.180,-168.396,93.079,-227.234
-0.282,-0.063,1.246,-168.213,79.407,-242.432
-0.378,-0.029,1.238,-170.654,66.833,-264.709
-0.443,0.037,1.204,-175.537,58.472,-285.583
-0.512,0.101,1.157,-179.626,56.335,-300.659
-0.567,0.209,1.136,-176.819,61.646,-308.960
-0.614,0.323,1.143,-164.917,71.350,-308.044
-0.652,0.425,1.187,-146.973,83.069,-297.363
-0.716,0.492,1.354,-125.000,96.680,-275.879
-0.830,0.432,1.584,-100.281,106.750,-245.972
-0.965,0.252,1.767,-76.538,103.882,-216.248
-1.057,-0.051,1.819,-61.584,85.022,-198.303
-1.112,-0.364,1.734,-65.369,57.556,-201.050
-1.064,-0.521,1.581,-82.092,29.419,-226.440
-0.981,-0.481,1.455,-101.624,7.385,-263.367
-0.903,-0.330,1.334,-113.281,-4.333,-296.021
-0.839,-0.152,1.275,-112.671,-7.019,-311.523
-0.851,-0.046,1.257,-99.731,-1.953,-305.054
-0.886,0.071,1.313,-77.271,9.827,-284.729
-0.974,0.121,1.464,-53.955,24.170,-258.728
-1.075,0.088,1.590,-38.330,25.391,-231.079
-1.133,-0.034,1.642,-28.503,7.935,-208.252
-1.118,-0.185,1.543,-22.156,-18.799,-195.923
-1.050,-0.276,1.380,-20.691,-45.959,-196.838
-0.950,-0.268,1.203,-20.020,-68.054,-207.520
-0.856,-0.199,1.034,-19.958,-80.994,-218.689
-0.809,-0.120,0.883,-20.752,-86.670,-226.501
-0.773,-0.033,0.783,-21.362,-84.656,-228.882
-0.775,0.024,0.717,-21.362,-78.613,-223.816
-0.792,0.039,0.704,-19.836,-70.496,-213.684
-0.837,0.033,0.732,-16.602,-62.500,-202.026
-0.875,0.019,0.768,-9.521,-58.655,-189.575
-0.896,0.006,0.810,0.244,-60.791,-178.650
-0.891,-0.000,0.831,9.338,-66.833,-170.532
-0.884,0.013,0.831,13.306,-73.792,-166.260
-0.868,0.031,0.829,13.000,-79.895,-165.527
-0.841,0.045,0.803,11.780,-85.022,-166.443
-0.824,0.053,0.769,11.658,-86.487,-167.480
-0.802,0.085,0.755,12.024,-84.412,-168.274
-0.801,0.124,0.744,10.742,-79.224,-168.213
-0.777,0.175,0.753,3.845,-74.280,-165.405
-0.769,0.214,0.774,-6.104,-71.106,-160.217
-0.762,0.252,0.799,-15.625,-71.594,-151.917
-0.745,0.265,0.792,-20.752,-76.904,-140.564
-0.728,0.272,0.738,-19.287,-85.388,-126.526
-0.710,0.274,0.675,-10.803,-92.407,-110.779
-0.688,0.261,0.629,1.038,-93.201,-93.384
-0.689,0.201,0.611,14.404,-87.463,-76.660
-0.696,0.150,0.595,27.283,-78.369,-61.218
-0.687,0.091,0.589,35.645,-70.190,-49.805
-0.682,0.056,0.610,36.987,-62.805,-43.091
-0.670,0.042,0.637,30.334,-57.007,-39.429
-0.667,0.037,0.651,17.395,-54.382,-37.720
-0.661,0.044,0.672,3.479,-53.528,-36.987
-0.667,0.059,0.706,-4.578,-52.917,-36.011
-0.670,0.088,0.739,-4.211,-53.955,-33.142
-0.684,0.111,0.742,4.822,-55.664,-27.039
-0.685,0.124,0.706,16.602,-56.580,-19.897
-0.695,0.129,0.657,23.865,-54.321,-15.442
-0.701,0.124,0.618,24.048,-47.791,-15.381
-0.703,0.112,0.595,18.616,-40.039,-19.043
-0.697,0.119,0.582,9.705,-33.325,-25.879
-0.703,0.145,0.579,-0.061,-27.039,-34.119
-0.711,0.175,0.587,-9.827,-21.667,-41.016
-0.722,0.200,0.608,-16.846,-17.822,-44.128
-0.757,0.213,0.613,-17.273,-14.832,-41.809

-1.374,0.583,0.776,-5.554,145.508,60.486
-1.447,0.599,0.938,-2.747,159.485,88.196
-1.538,0.562,1.098,-2.625,162.781,119.934
-1.612,0.485,1.173,-3.479,156.067,150.635
-1.693,0.390,1.164,-2.625,149.414,176.941
-1.776,0.350,1.122,0.427,147.888,199.036
-1.874,0.350,1.090,5.371,151.978,220.276
-1.918,0.405,1.091,10.193,162.842,246.216
-1.915,0.458,1.141,13.062,180.664,276.001
-1.902,0.499,1.179,11.719,201.294,310.486
-1.773,0.547,1.252,12.512,224.060,349.792
-1.662,0.664,1.336,19.226,254.272,393.616
-1.612,0.812,1.582,29.602,283.142,441.284
-1.670,0.823,1.836,56.702,293.396,493.042
-1.779,0.849,1.932,109.436,286.438,542.480
-1.902,0.888,1.966,180.664,269.653,579.102
-2.022,0.954,2.031,245.850,249.878,592.285
-2.106,1.077,2.092,281.006,225.159,581.848
-2.085,1.254,2.073,284.851,187.561,555.481
-1.967,1.398,1.924,267.639,137.451,521.667
-1.708,1.618,1.599,240.784,88.074,489.014
-1.438,1.893,1.226,212.524,49.194,465.332
-1.184,2.156,0.910,207.703,22.034,461.060
-0.935,2.352,0.649,249.207,8.972,480.713
-0.642,2.456,0.552,321.228,10.376,510.925
-0.380,2.345,0.609,387.573,14.832,540.161
-0.123,2.043,0.756,429.321,16.052,559.021
0.035,1.626,0.826,438.293,9.155,553.894
0.342,1.192,0.911,408.081,-3.784,522.522
0.796,0.665,1.018,351.501,-19.470,468.994
1.191,0.359,1.255,290.588,-35.400,391.174
1.464,0.398,1.530,254.395,-44.006,296.570
1.622,0.843,1.795,257.507,-56.213,209.106
1.829,1.404,2.015,291.138,-70.679,138.367
2.026,1.908,2.006,313.049,-87.769,80.750
2.190,2.207,1.716,289.246,-118.408,28.992
2.254,2.232,1.148,226.929,-156.067,-17.151
2.332,2.112,0.456,153.870,-185.608,-55.847
2.348,1.915,-0.264,92.834,-199.707,-81.970
2.285,1.665,-0.798,55.420,-187.378,-88.623
2.128,1.336,-1.076,37.231,-150.940,-82.092
1.877,0.971,-1.145,25.208,-105.408,-76.599
1.627,0.682,-1.018,11.414,-67.139,-83.069
1.413,0.503,-0.759,-4.028,-38.940,-99.792
1.200,0.363,-0.504,-19.653,-19.287,-116.821
1.055,0.306,-0.301,-32.837,-7.568,-127.625
0.931,0.346,-0.164,-49.622,4.944,-133.484
0.777,0.397,-0.024,-79.895,23.071,-137.451
0.609,0.385,0.156,-111.389,43.579,-142.151
0.461,0.348,0.392,-130.859,64.270,-145.264
0.333,0.299,0.677,-134.583,82.031,-146.362
0.158,0.182,0.969,-129.761,90.759,-145.447
0.003,-0.009,1.150,-120.972,88.806,-143.616
-0.106,-0.223,1.206,-115.356,78.552,-148.499
-0.188,-0.412,1.190,-117.554,66.528,-165.527
-0.276,-0.496,1.190,-121.826,57.068,-195.374
-0.316,-0.410,1.210,-119.568,52.551,-230.774
-0.324,-0.170,1.244,-112.610,51.697,-260.132
-0.335,0.138,1.266,-112.000,54.382,-272.278
-0.449,0.294,1.246,-125.671,58.899,-263.794
-0.566,0.214,1.254,-146.118,62.073,-243.896
-0.696,-0.046,1.299,-157.898,63.293,-224.304
-0.767,-0.301,1.330,-159.180,58.472,-214.966
-0.767,-0.542,1.360,-153.870,48.401,-217.102
-0.745,-0.722,1.357,-147.034,36.621,-227.112
-0.676,-0.783,1.354,-140.320,24.292,-245.178
-0.616,-0.703,1.331,-130.676,14.221,-269.531
-0.596,-0.535,1.334,-117.615,9.460,-292.114
-0.619,-0.364,1.359,-96.863,8.850,-305.176
-0.646,-0.218,1.367,-72.205,7.263,-308.228
-0.672,-0.098,1.392,-53.101,3.906,-304.504
-0.716,-0.041,1.380,-53.040,-1.465,-296.448
-0.752,-0.050,1.327,-72.449,-10.437,-292.114
-0.759,-0.107,1.256,-98.755,-25.208,-294.312
-0.715,-0.179,1.178,-117.188,-39.978,-296.692
-0.727,-0.230,1.120,-111.694,-47.913,-292.969
-0.731,-0.256,1.077,-80.933,-47.668,-281.128
-0.755,-0.273,1.059,-41.748,-45.959,-269.104
-0.773,-0.262,1.058,-12.207,-44.495,-263.794
-0.781,-0.236,1.072,-2.075,-42.847,-268.066
-0.785,-0.195,1.085,-10.681,-44.617,-278.625
-0.787,-0.129,1.097,-31.677,-51.941,-291.931
-0.779,-0.066,1.090,-54.382,-62.744,-303.284
-0.773,0.001,1.074,-72.021,-75.500,-311.340
-0.750,0.085,1.033,-78.735,-87.708,-314.880
-0.759,0.157,1.001,-70.435,-96.436,-307.556
-0.799,0.207,0.972,-49.805,-97.595,-290.405
-0.851,0.224,0.961,-25.757,-93.079,-268.372
-0.906,0.225,0.965,-7.996,-87.952,-249.512
-0.924,0.227,0.960,-2.075,-85.205,-236.877
-0.944,0.234,0.944,-5.127,-84.290,-229.919
-0.951,0.262,0.940,-13.306,-84.595,-226.135
-0.975,0.282,0.911,-21.729,-88.379,-222.656
-0.966,0.310,0.871,-25.879,-95.947,-216.309
-0.940,0.326,0.795,-24.902,-103.882,-206.909
-0.914,0.356,0.719,-20.508,-106.628,-195.129
-0.890,0.381,0.662,-13.184,-101.746,-180.359
-0.872,0.419,0.620,-6.409,-92.163,-163.208
-0.854,0.458,0.624,-1.038,-79.346,-143.921
-0.842,0.483,0.653,2.808,-63.965,-123.352
-0.833,0.480,0.676,2.441,-49.377,-102.356
-0.812,0.462,0.726,-1.038,-39.673,-82.031
-0.810,0.419,0.784,-5.249,-35.522,-62.500
-0.794,0.344,0.824,-9.338,-37.903,-45.959
-0.779,0.263,0.813,-11.108,-44.861,-35.461
-0.750,0.220,0.772,-10.498,-51.880,-31.128
-0.719,0.209,0.726,-5.493,-57.007,-30.212
-0.675,0.244,0.668,6.165,-60.181,-27.771
-0.645,0.293,0.580,19.897,-60.791,-21.179
-0.622,0.335,0.498,27.161,-58.044,-12.573
-0.634,0.334,0.430,27.100,-51.208,-5.005
-0.620,0.346,0.427,21.240,-42.175,0.793
-0.624,0.334,0.448,14.526,-33.630,4.761
-0.644,0.317,0.490,7.080,-26.245,6.714
-0.659,0.300,0.537,0.000,-23.254,6.348
-0.678,0.293,0.591,-2.808,-24.780,4.028
-0.692,0.294,0.612,-1.099,-28.137,1.892
-0.705,0.297,0.624,4.272,-31.555,0.427
-0.709,0.299,0.621,10.925,-31.921,-0.366

-1.356,0.555,0.856,9.583,117.432,9.094
-1.469,0.604,0.934,13.428,132.141,21.729
-1.550,0.646,1.046,11.597,147.705,35.645
-1.640,0.682,1.179,5.066,161.499,55.542
-1.697,0.657,1.289,0.366,169.312,83.923
-1.770,0.559,1.337,3.113,171.570,121.887
-1.861,0.456,1.332,17.456,172.180,164.856
-1.953,0.338,1.315,39.795,171.265,208.984
-2.032,0.271,1.288,61.096,168.030,251.282
-2.125,0.259,1.264,77.271,166.138,289.734
-2.210,0.268,1.227,86.426,162.903,324.097
-2.271,0.362,1.152,93.079,160.522,352.600
-2.323,0.494,1.084,95.154,161.011,376.526
-2.333,0.607,1.076,92.224,160.278,397.644
-2.297,0.692,1.107,92.285,158.691,417.786
-2.269,0.792,1.156,106.262,156.799,438.538
-2.295,0.908,1.233,134.766,150.574,459.900
-2.296,1.079,1.330,174.011,133.911,483.398
-2.261,1.202,1.419,217.590,107.727,508.789
-2.157,1.279,1.503,258.850,76.721,533.997
-2.032,1.311,1.517,285.156,47.363,548.096
-1.850,1.341,1.468,287.048,22.034,544.983
-1.633,1.311,1.391,266.479,0.244,529.968
-1.327,1.252,1.297,240.723,-14.587,506.836
-1.016,1.262,1.310,223.083,-17.883,479.797
-0.753,1.353,1.434,221.924,-11.963,457.031
-0.448,1.665,1.772,253.967,-6.531,448.730
-0.260,1.852,2.105,305.359,-7.080,463.074
-0.063,1.816,2.217,342.102,-30.701,489.075
0.217,1.531,2.089,346.313,-70.190,497.314
0.432,1.166,1.867,313.232,-102.112,470.459
0.691,1.011,1.676,262.756,-119.995,407.043
0.985,1.037,1.494,211.060,-130.920,326.294
1.244,1.078,1.295,166.199,-137.451,252.869
1.494,1.233,1.082,144.348,-138.000,197.693
1.681,1.365,0.872,154.907,-131.409,166.687
1.843,1.439,0.820,182.922,-112.549,154.724
1.951,1.472,0.932,202.576,-91.797,143.433
2.001,1.359,0.991,198.303,-85.327,124.268
1.961,1.172,0.811,172.180,-98.083,94.910
2.024,1.057,0.499,133.850,-119.202,48.889
2.101,1.027,0.146,88.684,-135.742,-6.287
2.120,1.048,-0.253,43.884,-139.282,-54.443
2.043,1.034,-0.549,9.033,-123.901,-86.365
1.839,0.971,-0.678,-10.925,-92.224,-101.868
1.626,0.875,-0.605,-19.653,-56.335,-108.215
1.406,0.726,-0.442,-25.513,-23.743,-111.511
1.211,0.580,-0.244,-34.973,1.343,-117.371
1.007,0.459,-0.016,-48.828,18.982,-129.456
0.793,0.336,0.180,-67.017,29.480,-145.813
0.626,0.243,0.312,-84.961,35.156,-166.992
0.477,0.224,0.384,-101.807,40.405,-189.941
0.358,0.245,0.449,-115.356,49.744,-213.196
0.223,0.264,0.499,-124.390,62.561,-231.018
0.113,0.318,0.576,-127.380,77.942,-243.835
0.029,0.409,0.789,-128.540,97.351,-252.075
-0.135,0.419,1.041,-129.089,114.197,-252.808
-0.295,0.299,1.295,-129.822,120.422,-247.009
-0.507,0.069,1.480,-131.042,116.577,-243.347
-0.724,-0.224,1.539,-134.216,106.628,-248.779
-0.843,-0.418,1.522,-137.756,92.102,-265.991
-0.876,-0.427,1.484,-145.020,76.538,-298.096
-0.935,-0.297,1.431,-158.569,65.491,-331.726
-0.984,-0.138,1.360,-174.866,62.195,-355.469
-1.021,0.031,1.350,-188.049,63.599,-365.723
-1.091,0.114,1.473,-182.861,69.641,-356.934
-1.186,0.089,1.655,-151.917,75.439,-326.416
-1.315,-0.085,1.835,-106.018,74.097,-284.485
-1.399,-0.343,1.940,-66.528,61.340,-250.732
-1.413,-0.610,1.943,-48.096,39.551,-237.976
-1.362,-0.786,1.866,-50.659,15.747,-252.258
-1.301,-0.761,1.746,-63.538,-5.127,-285.461
-1.223,-0.619,1.613,-77.576,-23.865,-320.862
-1.130,-0.434,1.446,-84.351,-40.039,-344.177
-1.080,-0.207,1.293,-82.520,-50.842,-352.539
-1.039,-0.036,1.109,-78.674,-58.167,-340.942
-1.036,0.037,0.944,-72.693,-58.655,-314.636
-1.030,0.058,0.864,-58.044,-53.711,-280.945
-1.045,0.039,0.857,-38.269,-45.654,-245.850
-1.058,-0.034,0.872,-23.193,-40.161,-216.125
-1.069,-0.128,0.888,-17.822,-38.269,-197.632
-1.061,-0.211,0.892,-19.592,-39.612,-191.040
-1.054,-0.258,0.872,-23.499,-41.504,-190.857
-1.031,-0.241,0.863,-23.437,-41.992,-194.397
-1.011,-0.199,0.845,-20.081,-43.396,-197.815
-0.962,-0.122,0.822,-16.235,-46.570,-199.463
-0.906,-0.012,0.815,-14.160,-49.011,-198.059
-0.888,0.074,0.793,-16.724,-51.453,-192.139
-0.842,0.142,0.783,-22.461,-56.274,-181.580
-0.828,0.165,0.763,-24.963,-59.937,-168.945
-0.809,0.161,0.728,-24.048,-62.805,-155.457
-0.782,0.154,0.690,-20.996,-66.162,-144.409
-0.765,0.154,0.663,-19.165,-66.956,-136.841
-0.752,0.151,0.656,-18.738,-65.674,-132.019
-0.744,0.129,0.673,-17.761,-63.965,-128.662
-0.738,0.112,0.698,-14.648,-62.256,-126.709
-0.716,0.138,0.720,-9.705,-63.904,-126.465
-0.690,0.182,0.730,-5.981,-67.261,-125.854
-0.666,0.240,0.723,-6.042,-70.557,-123.718
-0.648,0.288,0.688,-9.033,-73.425,-118.408
-0.632,0.326,0.643,-12.268,-73.425,-108.948
-0.627,0.334,0.615,-13.733,-69.031,-96.619
-0.639,0.306,0.606,-12.390,-61.646,-81.665
-0.649,0.252,0.621,-7.996,-54.260,-66.650
-0.656,0.182,0.634,-2.197,-47.424,-53.589
-0.657,0.108,0.639,4.822,-42.542,-43.884
-0.653,0.045,0.633,11.230,-39.368,-38.269
-0.645,0.012,0.630,15.381,-37.903,-38.391
-0.635,0.024,0.650,16.907,-36.804,-42.725
-0.627,0.068,0.663,15.686,-36.255,-49.194
-0.628,0.122,0.647,10.010,-37.292,-55.298
-0.631,0.187,0.635,2.380,-36.926,-60.242
-0.640,0.246,0.628,-2.380,-33.264,-62.622
-0.645,0.306,0.634,-2.747,-28.259,-61.401
-0.648,0.346,0.638,1.282,-22.949,-56.213
-0.652,0.376,0.651,7.996,-18.127,-48.340
-0.654,0.384,0.661,15.442,-15.503,-39.246
-0.653,0.378,0.666,21.423,-15.198,-30.701
-0.658,0.366,0.676,25.024,-16.174,-24.475

-1.217,0.934,0.897,3.235,128.967,-8.972
-1.330,1.031,1.116,13.062,134.827,13.184
-1.441,1.072,1.267,13.977,130.005,39.551
-1.531,1.027,1.314,8.911,120.178,65.674
-1.625,0.977,1.329,0.793,112.366,87.830
-1.690,0.898,1.337,-8.484,110.168,106.934
-1.725,0.818,1.309,-18.005,111.572,123.596
-1.794,0.780,1.309,-21.484,114.624,140.259
-1.817,0.753,1.286,-13.245,115.601,165.588
-1.836,0.711,1.253,11.292,118.958,202.026
-1.855,0.663,1.235,43.091,122.864,242.859
-1.867,0.568,1.223,69.153,125.549,283.691
-1.882,0.454,1.227,84.290,127.991,319.946
-1.924,0.346,1.257,87.219,129.761,344.543
-1.942,0.256,1.276,78.796,126.038,356.567
-1.936,0.217,1.249,67.383,117.920,356.140
-1.952,0.270,1.146,57.983,110.229,346.802
-1.899,0.480,1.041,53.345,104.736,335.754
-1.891,0.822,0.950,68.848,104.248,336.853
-1.846,1.166,0.922,112.976,109.863,364.563
-1.811,1.454,1.075,164.673,117.249,406.494
-1.748,1.607,1.292,204.224,118.835,449.829
-1.703,1.636,1.499,222.229,109.375,480.591
-1.670,1.587,1.616,218.689,89.417,492.432
-1.573,1.529,1.622,203.613,62.378,488.525
-1.439,1.511,1.495,185.608,34.973,473.145
-1.308,1.691,1.298,166.260,11.841,452.759
-1.114,1.971,1.104,163.208,-2.808,440.247
-0.917,2.289,0.889,182.312,-8.667,441.467
-0.729,2.585,0.782,208.984,-11.902,454.712
-0.550,2.757,0.766,229.797,-14.465,474.731
-0.429,2.746,0.765,244.568,-20.691,497.742
-0.298,2.562,0.809,252.014,-31.372,516.479
-0.149,2.251,0.893,250.732,-42.847,522.400
0.078,1.890,0.991,242.432,-56.580,513.000
0.337,1.511,1.093,226.990,-72.266,489.929
0.629,1.175,1.205,205.383,-86.487,454.590
0.944,0.936,1.399,184.692,-98.877,411.255
1.233,0.688,1.475,173.645,-115.051,367.676
1.525,0.456,1.425,173.767,-132.324,328.430
1.743,0.233,1.304,179.077,-146.790,286.072
1.944,0.114,1.182,181.091,-161.011,232.422
2.164,0.168,1.076,173.584,-171.814,160.950
2.360,0.356,0.922,149.414,-179.077,81.299
2.535,0.579,0.695,112.732,-187.683,8.423
2.664,0.702,0.397,76.172,-192.993,-45.715
2.722,0.680,0.077,48.340,-188.538,-79.834
2.640,0.582,-0.180,31.982,-170.227,-100.830
2.487,0.459,-0.374,27.588,-139.954,-112.732
2.272,0.348,-0.493,33.081,-101.074,-120.483
2.025,0.281,-0.479,40.283,-58.228,-128.662
1.787,0.212,-0.332,39.307,-21.667,-141.479
1.588,0.163,-0.137,25.818,3.418,-160.889
1.421,0.150,0.042,2.136,20.142,-186.523
1.259,0.161,0.191,-25.146,32.227,-215.149
1.089,0.167,0.289,-49.316,42.786,-239.441
0.932,0.182,0.336,-64.026,56.213,-256.104
0.799,0.227,0.392,-69.031,76.233,-266.113
0.644,0.250,0.526,-71.716,102.844,-271.362
0.478,0.270,0.728,-76.721,130.432,-275.635
0.318,0.302,0.997,-81.482,152.466,-281.860
0.146,0.351,1.249,-81.848,164.185,-288.635
0.001,0.404,1.422,-80.994,165.283,-295.044
-0.141,0.447,1.519,-83.740,159.363,-303.040
-0.309,0.427,1.529,-90.393,150.940,-310.608
-0.466,0.390,1.507,-96.252,142.456,-318.542
-0.610,0.337,1.490,-99.487,135.864,-327.942
-0.743,0.294,1.498,-99.792,132.385,-337.097
-0.836,0.284,1.502,-92.590,130.493,-341.858
-0.937,0.360,1.520,-74.097,129.333,-338.745
-1.016,0.492,1.599,-47.729,130.859,-325.012
-1.151,0.627,1.707,-25.146,131.775,-301.025
-1.288,0.627,1.740,-15.991,126.648,-273.315
-1.398,0.526,1.678,-23.254,111.694,-250.610
-1.461,0.347,1.577,-37.109,90.942,-241.394
-1.475,0.185,1.438,-51.758,72.754,-240.417
-1.460,0.069,1.332,-65.369,55.481,-244.812
-1.426,-0.003,1.258,-74.890,39.978,-251.892
-1.394,-0.040,1.203,-75.256,27.832,-255.920
-1.355,-0.021,1.174,-61.890,17.456,-252.197
-1.322,0.036,1.145,-38.513,10.437,-242.126
-1.311,0.103,1.128,-19.958,6.409,-230.774
-1.301,0.125,1.097,-13.367,1.221,-220.947
-1.277,0.104,1.037,-18.311,-6.287,-214.233
-1.232,0.048,0.951,-29.114,-17.883,-211.548
-1.177,-0.015,0.841,-38.086,-27.771,-210.266
-1.128,-0.029,0.791,-43.518,-34.790,-211.243
-1.087,-0.037,0.771,-44.312,-41.504,-211.487
-1.055,-0.059,0.727,-39.246,-47.485,-208.191
-1.042,-0.085,0.701,-29.419,-50.171,-203.003
-1.035,-0.130,0.701,-15.991,-51.453,-197.754
-1.035,-0.153,0.725,-1.221,-52.002,-192.871
-1.029,-0.141,0.748,11.292,-52.795,-189.697
-1.035,-0.104,0.758,14.404,-55.359,-190.002
-1.044,-0.067,0.730,2.563,-62.378,-195.251
-1.012,-0.021,0.716,-17.761,-70.557,-202.515
-0.990,0.025,0.682,-38.025,-77.576,-209.534
-0.950,0.093,0.642,-51.392,-82.336,-214.233
-0.931,0.156,0.602,-52.307,-85.510,-210.999
-0.915,0.219,0.577,-39.795,-86.426,-198.792
-0.926,0.264,0.549,-18.738,-83.618,-180.603
-0.922,0.301,0.554,1.709,-80.200,-160.522
-0.927,0.317,0.554,15.320,-77.087,-144.531
-0.922,0.360,0.575,18.677,-73.914,-134.216
-0.910,0.413,0.616,12.451,-71.594,-127.014
-0.885,0.458,0.622,-2.808,-71.960,-118.774
-0.860,0.473,0.599,-22.339,-73.547,-107.117
-0.842,0.461,0.557,-37.842,-70.190,-92.590
-0.825,0.429,0.549,-41.809,-61.279,-76.660
-0.819,0.397,0.571,-33.508,-47.668,-59.509
-0.842,0.378,0.627,-15.747,-30.334,-41.870
-0.858,0.359,0.713,2.014,-14.282,-26.550
-0.888,0.340,0.808,13.855,-6.714,-14.954
-0.889,0.332,0.863,18.311,-7.751,-7.996
-0.876,0.319,0.859,15.076,-13.672,-5.615
-0.844,0.301,0.816,6.165,-20.203,-7.019
-0.802,0.288,0.758,-4.700,-24.353,-10.437
-0.760,0.274,0.699,-15.625,-24.780,-13.428
-0.727,0.252,0.648,-23.499,-22.278,-14.099
