aX,aY,aZ,gX,gY,gZ
-1.594,1.148,-0.086,59.387,91.553,8.850
-1.738,1.196,-0.089,70.251,109.619,15.259
-1.849,1.251,-0.111,81.665,129.272,22.278
-1.937,1.315,-0.133,92.957,149.597,29.419
-2.025,1.381,-0.120,102.905,169.922,37.415
-2.072,1.468,-0.101,110.962,192.139,47.302
-2.087,1.549,-0.090,117.737,214.539,59.265
-2.113,1.610,-0.081,123.840,234.741,73.242
-2.156,1.640,-0.079,129.578,251.831,87.769
-2.137,1.684,-0.065,133.911,268.066,101.074
-2.008,1.796,-0.042,137.573,282.654,113.770
-1.846,1.933,0.004,143.250,294.800,126.221
-1.661,2.040,0.023,153.625,304.565,141.052
-1.479,2.127,0.024,169.495,311.157,159.668
-1.298,2.170,0.009,190.552,313.965,179.321
-1.106,2.192,-0.015,215.515,315.430,197.327
-0.884,2.129,-0.040,241.882,315.796,212.402
-0.581,1.993,-0.099,265.991,313.782,227.051
-0.303,1.819,-0.127,285.583,306.702,242.676
-0.070,1.584,-0.142,297.180,293.884,258.301
0.090,1.320,-0.167,299.683,277.344,270.142
0.220,1.038,-0.180,292.725,260.315,274.841
0.323,0.796,-0.171,277.710,243.469,272.949
0.405,0.589,-0.140,255.798,226.624,266.357
0.507,0.452,-0.115,229.736,210.815,256.714
0.637,0.404,-0.094,201.233,196.777,244.873
0.782,0.416,-0.081,174.866,183.533,230.469
0.980,0.476,-0.076,153.992,169.678,216.248
1.097,0.536,-0.080,141.174,154.236,205.078
1.157,0.523,-0.089,136.719,139.587,194.031
1.218,0.438,-0.118,137.817,128.845,181.274
1.284,0.306,-0.136,141.785,121.460,167.725
1.391,0.173,-0.150,145.142,113.464,152.222
1.472,0.018,-0.132,145.691,101.257,133.789
1.490,-0.122,-0.101,141.174,85.876,114.685
1.473,-0.244,-0.076,130.005,69.092,95.459
1.428,-0.334,-0.023,112.549,53.223,77.942
1.387,-0.372,0.038,89.050,40.344,63.416
1.327,-0.364,0.104,62.927,29.236,51.819
1.225,-0.334,0.180,37.292,19.043,41.931
1.109,-0.302,0.251,14.404,10.010,32.410
1.003,-0.243,0.343,-3.723,2.869,22.583
0.923,-0.159,0.442,-17.090,-1.404,12.390
0.863,-0.076,0.538,-25.391,-3.784,3.235
0.806,-0.006,0.632,-28.198,-5.371,-2.014
0.771,0.033,0.723,-26.001,-7.080,-3.967
0.731,0.038,0.795,-19.958,-9.094,-5.493
0.695,0.015,0.859,-12.024,-11.780,-8.301
0.655,-0.002,0.919,-4.578,-15.259,-12.756
0.634,-0.034,0.944,1.221,-18.860,-18.005
0.614,-0.077,0.958,4.333,-22.522,-22.705
0.610,-0.119,0.958,3.601,-26.367,-27.649
0.620,-0.146,0.957,-1.831,-30.029,-32.959
0.609,-0.165,0.952,-11.597,-33.936,-38.086
0.598,-0.159,0.922,-24.841,-37.476,-42.603
0.573,-0.121,0.896,-39.185,-41.321,-47.485
0.555,-0.059,0.877,-52.795,-44.983,-53.040
0.535,0.030,0.857,-63.904,-48.279,-58.044
0.525,0.124,0.851,-71.228,-51.331,-61.829
0.531,0.208,0.850,-74.097,-54.626,-64.636
0.543,0.286,0.857,-72.876,-58.289,-67.566
0.533,0.349,0.867,-68.237,-62.744,-70.618
0.514,0.355,0.876,-60.730,-67.322,-73.364
0.476,0.301,0.861,-52.856,-72.510,-75.500
0.402,0.229,0.846,-47.607,-78.003,-77.026
0.331,0.172,0.831,-45.837,-82.581,-77.759
0.273,0.121,0.807,-46.814,-86.060,-78.003
0.227,0.084,0.780,-49.927,-89.233,-79.712
0.197,0.064,0.763,-53.589,-93.201,-83.679
0.187,0.056,0.746,-57.434,-98.389,-89.783
0.176,0.064,0.743,-61.829,-104.858,-97.473
0.154,0.067,0.739,-67.322,-112.183,-105.103
0.129,0.079,0.729,-74.280,-120.361,-111.267
0.116,0.113,0.692,-82.214,-129.150,-115.845
0.036,0.159,0.673,-90.515,-138.428,-119.629
-0.049,0.198,0.629,-98.083,-146.423,-121.765
-0.128,0.245,0.578,-104.187,-152.100,-122.009
-0.198,0.298,0.538,-107.971,-156.067,-121.216
-0.265,0.359,0.530,-109.009,-157.837,-120.605
-0.284,0.406,0.523,-107.300,-157.532,-121.216
-0.284,0.454,0.518,-103.821,-156.982,-122.620
-0.312,0.514,0.532,-99.609,-157.837,-123.901
-0.342,0.565,0.530,-94.971,-159.790,-124.207
-0.383,0.586,0.503,-90.698,-162.170,-122.437
-0.451,0.577,0.462,-87.402,-164.307,-116.577
-0.535,0.571,0.431,-85.388,-164.978,-109.070
-0.590,0.563,0.407,-84.167,-162.842,-103.699
-0.595,0.561,0.389,-82.825,-158.203,-101.746
-0.589,0.582,0.399,-81.055,-153.320,-101.990
-0.593,0.604,0.452,-78.430,-149.414,-102.966
-0.612,0.624,0.507,-74.951,-146.667,-103.210
-0.660,0.630,0.542,-70.679,-144.653,-102.905
-0.684,0.604,0.537,-65.979,-143.250,-102.234
-0.707,0.570,0.523,-62.317,-143.372,-101.135
-0.724,0.534,0.492,-60.791,-144.348,-100.037
-0.741,0.503,0.436,-61.646,-145.813,-98.633
-0.762,0.485,0.374,-64.697,-147.278,-97.778
-0.775,0.468,0.319,-70.068,-147.583,-98.511
-0.778,0.496,0.278,-77.209,-146.851,-100.220
-0.816,0.569,0.276,-83.801,-144.531,-102.417
-0.820,0.653,0.277,-88.684,-139.038,-103.577
-0.781,0.737,0.271,-90.027,-132.690,-102.844
-0.755,0.811,0.282,-87.769,-128.174,-100.525
-0.731,0.860,0.290,-82.275,-125.732,-96.619
-0.720,0.863,0.274,-74.463,-125.183,-91.614
-0.727,0.847,0.259,-65.613,-125.977,-86.609
-0.723,0.802,0.228,-57.617,-127.380,-82.886
-0.733,0.747,0.187,-51.880,-129.150,-80.444
-0.764,0.700,0.167,-49.500,-130.554,-79.834
-0.828,0.679,0.166,-50.598,-129.822,-80.872
-0.862,0.692,0.157,-53.894,-124.878,-82.581
-0.864,0.726,0.117,-57.373,-116.699,-84.473
-0.829,0.781,0.093,-59.509,-107.971,-84.595
-0.805,0.817,0.090,-59.204,-101.929,-84.106
-0.807,0.846,0.085,-58.228,-98.816,-82.214
-0.814,0.850,0.074,-56.091,-95.886,-80.383
-0.817,0.856,0.058,-53.589,-93.079,-78.552
-0.809,0.858,0.047,-51.331,-89.844,-77.332
-0.790,0.860,0.046,-49.316,-86.853,-76.111

-1.368,1.229,-0.102,30.823,72.449,-4.028
-1.487,1.319,-0.111,34.180,80.566,0.061
-1.599,1.425,-0.127,38.879,90.149,3.967
-1.705,1.564,-0.146,45.593,102.051,9.277
-1.779,1.694,-0.167,55.176,116.577,16.846
-1.803,1.820,-0.193,67.383,132.385,26.367
-1.814,1.918,-0.228,80.261,147.644,36.682
-1.841,1.964,-0.245,93.506,161.255,48.584
-1.859,1.982,-0.284,104.980,173.584,63.110
-1.906,1.994,-0.298,113.892,184.631,79.102
-1.925,2.019,-0.312,119.934,195.068,94.849
-1.903,2.068,-0.296,124.268,205.078,109.863
-1.839,2.111,-0.286,128.784,216.187,124.573
-1.740,2.127,-0.281,134.583,229.614,140.442
-1.615,2.136,-0.298,142.578,244.141,158.447
-1.479,2.107,-0.342,153.015,257.629,177.368
-1.299,2.051,-0.384,165.894,267.761,195.251
-1.094,1.999,-0.414,181.030,272.034,209.778
-0.881,1.917,-0.474,197.327,270.264,221.497
-0.721,1.795,-0.521,212.463,264.465,232.056
-0.584,1.662,-0.546,224.182,258.484,242.187
-0.431,1.507,-0.581,231.689,256.104,251.099
-0.273,1.338,-0.611,235.352,255.859,257.935
-0.091,1.180,-0.620,234.619,254.395,261.841
0.066,1.029,-0.604,230.896,250.366,261.841
0.194,0.889,-0.575,224.487,244.446,256.836
0.318,0.767,-0.536,216.125,236.694,248.901
0.435,0.707,-0.495,205.383,228.333,240.845
0.544,0.720,-0.445,194.153,220.398,232.971
0.622,0.746,-0.381,184.082,212.280,225.159
0.734,0.817,-0.365,177.002,204.895,218.079
0.842,0.849,-0.367,175.415,196.716,210.999
0.920,0.821,-0.357,178.162,187.683,202.576
0.978,0.730,-0.359,182.678,179.199,193.787
1.018,0.582,-0.341,184.937,172.852,185.730
1.059,0.438,-0.319,181.946,168.274,177.490
1.093,0.296,-0.268,173.645,164.917,169.006
1.153,0.190,-0.189,161.926,161.499,159.241
1.227,0.107,-0.113,149.109,156.250,147.766
1.319,-0.002,-0.025,136.169,148.499,135.376
1.393,-0.112,0.064,122.864,138.733,122.864
1.479,-0.233,0.127,107.727,127.930,110.718
1.491,-0.307,0.212,89.478,115.479,99.670
1.500,-0.382,0.257,69.763,102.417,89.050
1.453,-0.439,0.325,49.500,89.111,79.163
1.383,-0.482,0.376,30.396,76.721,68.542
1.311,-0.500,0.424,12.512,65.125,56.396
1.269,-0.506,0.482,-3.662,54.321,43.457
1.250,-0.473,0.556,-18.311,44.678,31.860
1.267,-0.402,0.640,-30.701,36.011,21.545
1.280,-0.316,0.739,-38.757,27.222,11.719
1.276,-0.247,0.833,-42.236,17.883,2.808
1.235,-0.240,0.898,-41.931,8.301,-3.479
1.183,-0.264,0.942,-40.466,-0.793,-7.812
1.146,-0.288,0.968,-39.551,-9.521,-13.550
1.107,-0.303,0.980,-40.100,-18.311,-21.240
1.075,-0.295,0.985,-41.931,-26.855,-30.151
1.055,-0.277,0.976,-44.617,-34.973,-39.063
1.047,-0.263,0.958,-48.523,-43.823,-47.913
1.041,-0.238,0.937,-53.589,-54.626,-57.678
1.015,-0.183,0.915,-60.242,-66.772,-68.237
0.954,-0.126,0.896,-68.787,-78.308,-78.308
0.876,-0.055,0.875,-77.881,-86.914,-85.510
0.822,0.005,0.849,-86.853,-92.529,-91.003
0.783,0.081,0.821,-94.482,-96.375,-95.642
0.750,0.156,0.792,-99.854,-100.586,-98.877
0.710,0.213,0.763,-102.112,-106.445,-101.440
0.662,0.254,0.735,-101.318,-113.464,-104.370
0.614,0.299,0.730,-99.243,-120.605,-109.375
0.564,0.339,0.738,-96.802,-126.526,-115.173
0.496,0.372,0.746,-94.421,-132.202,-119.568
0.434,0.394,0.742,-92.468,-138.306,-122.437
0.383,0.426,0.727,-90.332,-145.508,-125.427
0.273,0.451,0.709,-87.952,-153.687,-129.272
0.149,0.446,0.682,-85.510,-159.973,-132.385
0.063,0.446,0.639,-83.740,-162.292,-133.240
0.016,0.458,0.599,-83.252,-161.255,-132.324
-0.003,0.483,0.572,-84.167,-158.813,-131.348
-0.011,0.539,0.573,-85.938,-157.288,-131.714
-0.027,0.590,0.585,-87.341,-158.325,-132.385
-0.053,0.641,0.583,-87.219,-162.170,-131.226
-0.099,0.670,0.540,-85.327,-168.640,-128.723
-0.164,0.674,0.492,-82.886,-176.819,-125.183
-0.240,0.666,0.435,-80.078,-184.143,-122.070
-0.326,0.652,0.390,-77.515,-189.148,-119.812
-0.401,0.637,0.372,-75.439,-190.430,-117.798
-0.470,0.636,0.359,-73.792,-187.256,-115.173
-0.490,0.647,0.342,-72.327,-180.664,-111.938
-0.477,0.672,0.342,-70.618,-173.889,-109.192
-0.474,0.714,0.344,-67.871,-169.922,-107.300
-0.495,0.721,0.312,-64.575,-169.373,-105.164
-0.548,0.708,0.292,-61.401,-170.715,-101.196
-0.599,0.689,0.266,-58.533,-171.448,-95.947
-0.614,0.645,0.223,-55.786,-170.349,-91.919
-0.618,0.630,0.214,-54.504,-168.884,-90.332
-0.607,0.609,0.202,-54.077,-166.626,-90.637
-0.594,0.585,0.183,-54.993,-164.062,-92.957
-0.591,0.573,0.179,-57.434,-161.926,-95.398
-0.632,0.588,0.181,-61.157,-159.973,-97.229
-0.674,0.606,0.167,-65.308,-157.898,-97.656
-0.699,0.627,0.153,-69.153,-156.128,-96.497
-0.713,0.645,0.119,-72.083,-155.518,-93.811
-0.750,0.661,0.089,-73.975,-155.090,-91.431
-0.769,0.686,0.066,-74.829,-153.809,-89.844
-0.753,0.724,0.033,-74.219,-151.123,-88.928
-0.739,0.746,0.008,-72.083,-148.132,-87.769
-0.727,0.770,-0.012,-68.909,-144.470,-85.754
-0.736,0.793,-0.027,-65.063,-140.503,-83.069
-0.760,0.813,-0.024,-60.852,-135.986,-80.566
-0.783,0.829,-0.009,-56.213,-130.676,-78.552
-0.775,0.834,-0.002,-51.331,-125.488,-76.904
-0.760,0.833,0.003,-46.387,-121.521,-75.195
-0.746,0.797,-0.007,-41.687,-119.812,-72.937
-0.754,0.752,-0.016,-38.757,-119.934,-70.862
-0.757,0.709,-0.036,-37.781,-120.422,-69.824
-0.777,0.682,-0.060,-39.185,-120.728,-70.129
-0.819,0.669,-0.075,-42.603,-120.605,-71.899
-0.859,0.669,-0.087,-47.180,-118.652,-74.829
-0.873,0.669,-0.110,-52.979,-114.807,-77.820

-1.366,1.296,-0.112,68.359,87.341,11.047
-1.381,1.379,-0.117,76.416,99.182,15.747
-1.396,1.453,-0.125,84.717,108.521,21.973
-1.414,1.514,-0.129,92.651,115.662,29.236
-1.454,1.565,-0.141,99.915,121.704,36.682
-1.493,1.589,-0.157,104.919,127.930,45.288
-1.520,1.603,-0.164,107.361,134.827,55.237
-1.539,1.607,-0.160,106.628,143.005,66.223
-1.537,1.609,-0.156,102.844,152.405,78.247
-1.499,1.632,-0.159,97.351,161.926,91.553
-1.479,1.659,-0.160,92.590,169.373,105.286
-1.488,1.686,-0.173,90.942,174.683,118.164
-1.504,1.700,-0.209,93.201,178.589,129.456
-1.536,1.705,-0.242,99.426,182.312,140.076
-1.561,1.700,-0.275,108.765,187.134,150.513
-1.557,1.682,-0.312,119.934,194.153,162.048
-1.511,1.668,-0.343,131.836,203.186,174.683
-1.417,1.664,-0.374,144.287,213.257,187.195
-1.297,1.644,-0.432,156.494,221.497,198.792
-1.181,1.593,-0.498,167.358,224.854,210.266
-1.080,1.535,-0.527,176.086,222.961,221.436
-0.926,1.483,-0.525,181.946,219.727,230.957
-0.736,1.452,-0.514,184.326,216.919,238.342
-0.543,1.404,-0.495,183.350,215.210,244.751
-0.360,1.372,-0.486,179.749,213.989,251.465
-0.184,1.320,-0.494,175.720,212.219,259.094
-0.053,1.235,-0.486,171.448,208.801,264.648
0.067,1.148,-0.448,167.358,204.834,266.968
0.246,1.073,-0.382,163.086,201.233,266.907
0.444,0.993,-0.314,158.752,196.899,265.564
0.604,0.900,-0.237,154.175,190.857,262.573
0.734,0.798,-0.159,149.109,183.838,258.301
0.822,0.684,-0.096,143.372,176.392,253.113
0.901,0.578,-0.041,137.512,169.006,246.765
0.963,0.471,-0.000,130.981,161.560,239.136
0.999,0.366,0.056,123.962,154.053,229.675
1.045,0.278,0.116,115.906,147.278,217.834
1.100,0.193,0.197,107.483,141.785,204.895
1.151,0.116,0.278,98.267,137.146,190.735
1.219,0.026,0.346,88.013,132.874,175.720
1.288,-0.052,0.406,76.904,126.404,160.950
1.306,-0.116,0.465,65.430,116.943,146.973
1.277,-0.159,0.507,54.688,104.980,133.301
1.254,-0.201,0.553,45.776,92.285,119.873
1.200,-0.233,0.608,38.208,80.811,105.957
1.158,-0.258,0.661,30.884,71.533,92.407
1.152,-0.276,0.695,24.109,63.843,80.627
1.091,-0.306,0.736,17.334,54.810,70.496
1.001,-0.335,0.766,10.071,45.227,60.364
0.905,-0.352,0.786,2.808,36.133,49.561
0.785,-0.343,0.819,-3.723,28.137,39.368
0.684,-0.307,0.864,-8.667,22.583,30.457
0.621,-0.246,0.908,-11.292,19.287,22.522
0.568,-0.185,0.961,-10.437,17.029,15.564
0.537,-0.149,1.004,-6.653,14.465,9.766
0.510,-0.157,1.030,-1.953,11.902,4.333
0.502,-0.191,1.041,1.648,8.606,-0.061
0.472,-0.228,1.041,2.625,4.211,-3.235
0.423,-0.254,1.049,-0.061,0.122,-6.409
0.396,-0.256,1.056,-4.822,-2.014,-10.681
0.390,-0.221,1.061,-10.559,-2.991,-15.442
0.396,-0.163,1.076,-15.869,-4.272,-20.203
0.413,-0.093,1.089,-19.226,-5.188,-24.719
0.429,-0.042,1.095,-20.142,-6.348,-29.053
0.459,0.001,1.089,-19.226,-8.118,-32.471
0.473,0.020,1.073,-17.029,-10.559,-34.485
0.475,0.028,1.047,-14.771,-13.916,-35.583
0.478,0.031,1.018,-12.939,-17.029,-36.987
0.481,0.029,0.990,-11.292,-19.531,-39.246
0.485,0.032,0.973,-10.010,-21.912,-42.419
0.487,0.041,0.961,-9.277,-24.048,-46.631
0.481,0.050,0.956,-9.521,-26.123,-50.598
0.481,0.067,0.944,-10.620,-27.893,-53.467
0.484,0.080,0.930,-12.756,-30.273,-55.237
0.470,0.078,0.908,-15.259,-33.875,-57.251
0.444,0.074,0.893,-17.883,-38.391,-60.120
0.421,0.064,0.871,-20.264,-43.091,-63.477
0.411,0.047,0.844,-22.278,-47.546,-67.444
0.410,0.044,0.832,-24.353,-52.185,-71.777
0.405,0.053,0.825,-27.405,-57.068,-76.172
0.397,0.055,0.808,-31.311,-62.256,-79.529
0.363,0.060,0.791,-36.194,-68.115,-82.275
0.314,0.071,0.793,-41.504,-73.853,-85.388
0.272,0.076,0.768,-46.936,-78.186,-88.562
0.239,0.076,0.743,-51.819,-82.458,-91.187
0.221,0.086,0.715,-56.458,-87.341,-93.445
0.221,0.096,0.675,-60.547,-93.262,-96.069
0.213,0.121,0.653,-64.453,-100.403,-100.037
0.195,0.150,0.640,-68.115,-109.070,-105.408
0.174,0.195,0.615,-72.266,-117.859,-110.901
0.092,0.254,0.592,-76.294,-127.075,-115.356
-0.044,0.302,0.595,-78.979,-134.705,-118.286
-0.145,0.331,0.581,-80.017,-138.245,-119.080
-0.202,0.318,0.560,-80.078,-137.695,-117.920
-0.214,0.314,0.539,-80.566,-135.925,-113.953
-0.166,0.329,0.521,-80.933,-135.010,-109.070
-0.105,0.339,0.493,-80.566,-137.695,-106.506
-0.092,0.342,0.476,-80.200,-145.081,-108.093
-0.144,0.367,0.443,-80.505,-154.602,-112.427
-0.248,0.389,0.405,-81.543,-163.940,-116.394
-0.377,0.400,0.375,-82.825,-170.166,-117.737
-0.502,0.422,0.356,-84.229,-171.997,-117.310
-0.591,0.445,0.346,-84.900,-168.945,-116.760
-0.606,0.485,0.337,-84.534,-162.720,-115.784
-0.567,0.523,0.327,-82.092,-156.433,-114.075
-0.511,0.554,0.309,-77.637,-152.832,-112.305
-0.469,0.570,0.296,-72.083,-152.771,-111.450
-0.429,0.562,0.276,-66.711,-155.823,-111.877
-0.434,0.528,0.254,-63.354,-161.560,-112.671
-0.469,0.478,0.209,-63.599,-168.274,-113.220
-0.535,0.455,0.143,-67.627,-174.988,-115.234
-0.663,0.464,0.111,-75.012,-180.298,-118.591
-0.765,0.500,0.096,-84.290,-181.335,-121.338
-0.817,0.551,0.068,-92.590,-176.453,-122.070
-0.819,0.621,0.053,-99.060,-168.640,-120.850
-0.786,0.702,0.047,-101.746,-160.522,-117.615
-0.719,0.775,0.044,-99.792,-153.564,-114.380
-0.663,0.849,0.050,-93.018,-149.963,-111.511
-0.633,0.867,0.042,-82.397,-149.475,-108.093

-1.083,1.307,-0.167,-42.664,-82.336,-93.201
-1.092,1.297,-0.150,-31.799,-70.007,-88.135
-1.098,1.289,-0.129,-22.095,-58.838,-82.153
-1.081,1.266,-0.111,-13.245,-49.866,-75.317
-1.054,1.270,-0.099,-6.042,-43.945,-67.871
-1.013,1.263,-0.100,0.244,-41.077,-59.937
-0.987,1.241,-0.100,6.042,-40.955,-53.101
-0.958,1.204,-0.110,10.254,-41.199,-48.218
-0.926,1.174,-0.130,12.024,-40.955,-45.410
-0.917,1.146,-0.146,11.047,-39.612,-43.701
-0.895,1.146,-0.169,7.996,-36.804,-41.809
-0.887,1.161,-0.169,3.845,-32.654,-38.818
-0.843,1.184,-0.170,0.366,-27.161,-33.569
-0.780,1.211,-0.167,-1.526,-21.667,-26.001
-0.707,1.249,-0.156,-1.404,-17.639,-18.127
-0.651,1.246,-0.149,1.709,-15.503,-10.559
-0.617,1.198,-0.144,6.958,-14.954,-3.479
-0.591,1.126,-0.147,12.634,-14.343,3.540
-0.576,1.054,-0.156,18.188,-13.367,9.277
-0.567,0.964,-0.163,22.095,-12.207,12.207
-0.570,0.877,-0.161,23.743,-10.376,13.245
-0.569,0.812,-0.152,22.461,-7.446,13.367
-0.536,0.776,-0.145,18.555,-4.089,13.733
-0.494,0.775,-0.137,13.367,-1.587,14.282
-0.460,0.779,-0.126,8.545,-1.099,14.587
-0.432,0.794,-0.127,4.761,-2.563,14.404
-0.428,0.804,-0.135,2.380,-5.127,14.160
-0.447,0.810,-0.143,0.854,-7.629,13.550
-0.464,0.810,-0.154,-0.061,-9.277,12.268
-0.476,0.815,-0.161,-0.793,-9.155,10.681
-0.481,0.835,-0.160,-1.160,-8.118,9.644
-0.492,0.850,-0.154,-0.732,-6.409,9.155
-0.486,0.857,-0.146,0.183,-3.967,9.033
-0.467,0.849,-0.141,1.648,-1.526,9.460
-0.449,0.832,-0.133,3.113,-0.122,10.193
-0.428,0.820,-0.126,3.784,0.610,10.254
-0.418,0.807,-0.121,3.967,0.366,9.888
-0.421,0.801,-0.117,3.418,-0.366,9.460
-0.433,0.785,-0.114,2.625,-0.977,8.789
-0.443,0.778,-0.112,1.404,-1.160,7.935
-0.454,0.770,-0.110,0.000,-1.160,6.775
-0.457,0.772,-0.108,-1.648,-0.854,5.737
-0.460,0.783,-0.104,-3.174,-0.427,4.578
-0.459,0.803,-0.105,-4.578,0.122,3.296
-0.452,0.826,-0.104,-5.432,0.427,2.991
-0.449,0.850,-0.103,-5.554,0.183,2.808
-0.455,0.858,-0.107,-4.883,-0.488,2.808
-0.474,0.850,-0.110,-3.784,-1.099,3.113
-0.491,0.843,-0.108,-2.991,-1.404,3.052
-0.495,0.833,-0.107,-2.686,-0.671,2.991
-0.494,0.831,-0.105,-2.991,0.488,2.441
-0.486,0.843,-0.103,-3.418,1.648,2.014
-0.488,0.851,-0.102,-3.662,2.319,1.587
-0.489,0.864,-0.103,-3.723,2.869,1.404
-0.489,0.871,-0.104,-3.479,3.723,1.709
-0.481,0.870,-0.109,-2.808,4.395,2.380
-0.477,0.863,-0.107,-2.258,4.822,2.930
-0.476,0.854,-0.103,-1.892,4.883,2.869
-0.471,0.846,-0.096,-2.014,5.310,2.686
-0.470,0.845,-0.089,-2.808,5.554,2.808
-0.463,0.846,-0.081,-3.418,5.676,2.625
-0.453,0.855,-0.078,-4.028,5.432,2.075
-0.451,0.862,-0.073,-4.333,4.944,1.831
-0.455,0.861,-0.080,-4.150,4.578,2.075
-0.463,0.861,-0.082,-3.906,4.517,2.319
-0.464,0.857,-0.086,-3.540,4.822,2.258
-0.461,0.852,-0.090,-3.174,5.493,2.197
-0.458,0.852,-0.091,-3.113,6.165,2.136
-0.451,0.852,-0.090,-3.113,6.592,2.136
-0.444,0.850,-0.085,-2.930,6.958,2.014
-0.439,0.850,-0.082,-2.686,6.958,2.014
-0.431,0.853,-0.077,-2.319,6.531,1.831
-0.425,0.854,-0.075,-2.014,5.920,1.892
-0.428,0.851,-0.073,-2.014,4.944,1.770
-0.433,0.843,-0.073,-2.441,3.906,1.648
-0.438,0.839,-0.076,-3.235,3.235,1.526
-0.445,0.842,-0.081,-4.639,3.113,1.526
-0.453,0.854,-0.084,-5.615,3.479,1.587
-0.450,0.872,-0.086,-6.042,4.333,1.404
-0.448,0.887,-0.084,-5.737,5.249,1.343
-0.445,0.895,-0.083,-4.395,5.615,1.526
-0.443,0.889,-0.081,-2.625,5.371,1.709
-0.443,0.877,-0.079,-0.793,4.883,1.831
-0.445,0.858,-0.078,0.427,4.333,1.892
-0.447,0.846,-0.080,0.549,3.784,1.953
-0.454,0.838,-0.074,-0.305,3.662,2.075
-0.461,0.841,-0.070,-1.648,3.784,2.075
-0.461,0.861,-0.068,-2.991,4.211,1.770
-0.457,0.884,-0.062,-3.479,4.761,1.404
-0.456,0.895,-0.061,-2.869,5.066,1.282
-0.451,0.892,-0.061,-1.465,4.883,1.465
-0.446,0.883,-0.061,-0.061,4.700,1.587
-0.441,0.865,-0.066,1.099,4.456,1.953
-0.435,0.847,-0.064,1.709,4.150,2.258
-0.427,0.836,-0.064,1.160,3.357,2.319
-0.429,0.822,-0.066,0.061,2.258,2.563
-0.442,0.815,-0.065,-1.648,1.221,2.686
-0.448,0.824,-0.066,-3.296,0.732,2.258
-0.448,0.843,-0.068,-4.700,0.793,1.587
-0.449,0.871,-0.068,-5.371,1.221,1.221
-0.449,0.890,-0.070,-5.005,1.648,1.343
-0.444,0.895,-0.076,-3.357,2.258,1.343
-0.442,0.889,-0.078,-1.343,2.747,1.648
-0.437,0.876,-0.081,0.549,2.869,1.587
-0.433,0.861,-0.079,1.953,2.991,1.465
-0.431,0.848,-0.077,2.502,3.113,2.014
-0.437,0.838,-0.077,2.258,2.686,2.502
-0.446,0.821,-0.074,1.648,2.258,2.441
-0.445,0.816,-0.073,1.038,2.197,1.465
-0.434,0.818,-0.069,0.244,2.014,0.061
-0.430,0.826,-0.068,-0.610,1.526,-0.610
-0.436,0.837,-0.071,-1.587,0.610,-0.244
-0.447,0.848,-0.074,-2.380,0.122,0.305
-0.451,0.848,-0.077,-2.502,-0.061,0.061
-0.452,0.850,-0.078,-2.258,0.122,-0.549
-0.450,0.853,-0.074,-1.709,0.244,-1.038
-0.446,0.861,-0.075,-1.526,0.427,-1.038
-0.448,0.863,-0.070,-1.221,0.549,-0.549
-0.448,0.861,-0.072,-0.977,0.366,0.244

-1.354,1.088,-0.211,50.415,79.224,10.437
-1.428,1.132,-0.212,54.871,91.614,14.282
-1.464,1.192,-0.216,59.448,105.042,18.555
-1.492,1.260,-0.216,64.636,117.920,24.170
-1.531,1.333,-0.227,69.824,129.700,30.823
-1.587,1.389,-0.242,75.562,140.869,38.269
-1.642,1.446,-0.256,80.994,151.550,46.692
-1.691,1.503,-0.266,86.060,162.720,56.091
-1.731,1.549,-0.274,90.454,174.927,66.467
-1.725,1.605,-0.270,95.093,188.599,77.637
-1.671,1.665,-0.274,100.464,202.576,89.050
-1.620,1.716,-0.268,106.934,215.576,100.220
-1.592,1.740,-0.268,114.319,228.394,110.901
-1.545,1.760,-0.291,122.559,241.150,120.911
-1.460,1.778,-0.317,131.714,252.747,131.226
-1.356,1.788,-0.316,141.907,262.695,142.090
-1.279,1.771,-0.310,153.137,270.569,152.527
-1.211,1.729,-0.303,165.283,277.771,161.865
-1.121,1.660,-0.320,177.368,284.729,170.532
-1.027,1.572,-0.351,188.904,289.795,179.810
-0.937,1.496,-0.375,198.120,291.565,188.965
-0.855,1.413,-0.399,204.956,289.490,197.449
-0.776,1.325,-0.406,209.351,284.241,204.712
-0.657,1.241,-0.409,211.060,277.527,210.266
-0.547,1.162,-0.413,209.473,270.020,213.806
-0.454,1.098,-0.424,204.712,261.353,216.187
-0.353,1.037,-0.423,197.205,252.502,218.567
-0.243,0.990,-0.415,187.439,244.141,222.656
-0.122,0.928,-0.407,176.392,234.680,227.478
0.002,0.873,-0.394,165.039,223.389,230.774
0.079,0.845,-0.379,154.297,210.632,231.201
0.151,0.831,-0.344,145.325,197.998,228.455
0.267,0.803,-0.286,138.428,187.683,224.609
0.382,0.771,-0.231,133.545,179.321,221.741
0.520,0.736,-0.177,129.944,172.119,218.689
0.704,0.691,-0.119,127.808,164.856,212.891
0.870,0.620,-0.057,126.221,156.738,203.064
1.018,0.536,0.006,123.230,147.644,190.857
1.137,0.473,0.073,117.981,139.160,179.260
1.233,0.411,0.134,110.229,131.042,170.410
1.358,0.340,0.189,101.074,121.765,164.795
1.442,0.250,0.254,91.736,110.535,159.668
1.530,0.183,0.326,82.520,98.389,151.184
1.637,0.147,0.382,74.951,86.853,139.343
1.695,0.089,0.443,69.702,76.050,126.465
1.708,0.015,0.487,65.918,66.345,114.319
1.713,-0.063,0.503,62.256,56.946,103.455
1.672,-0.126,0.492,57.678,45.959,94.299
1.558,-0.226,0.496,52.368,33.813,85.449
1.446,-0.314,0.509,45.715,23.804,74.768
1.407,-0.381,0.521,36.987,17.212,61.829
1.400,-0.404,0.552,26.306,12.146,47.485
1.350,-0.396,0.607,14.587,6.897,32.959
1.283,-0.370,0.660,3.357,2.258,19.226
1.195,-0.342,0.714,-5.676,-1.587,6.531
1.128,-0.306,0.763,-13.489,-4.944,-4.089
1.058,-0.283,0.798,-19.409,-8.545,-12.878
0.993,-0.251,0.839,-23.865,-12.146,-21.973
0.944,-0.224,0.864,-26.917,-14.587,-31.433
0.910,-0.192,0.888,-28.381,-16.602,-40.283
0.890,-0.171,0.901,-29.419,-19.165,-48.889
0.869,-0.153,0.919,-30.334,-22.583,-57.678
0.854,-0.149,0.929,-31.433,-27.100,-66.956
0.835,-0.130,0.937,-33.508,-32.593,-77.026
0.828,-0.102,0.935,-37.354,-38.818,-87.402
0.799,-0.078,0.926,-43.335,-45.898,-96.497
0.767,-0.041,0.910,-51.453,-53.284,-104.004
0.732,0.002,0.882,-61.462,-60.608,-110.413
0.677,0.052,0.857,-72.144,-68.359,-116.211
0.624,0.116,0.834,-82.092,-75.684,-120.911
0.600,0.197,0.820,-90.149,-82.214,-125.488
0.574,0.297,0.815,-96.008,-88.379,-130.188
0.538,0.396,0.813,-99.060,-94.543,-134.216
0.499,0.472,0.809,-99.670,-101.013,-136.658
0.471,0.519,0.795,-98.633,-107.788,-137.512
0.426,0.543,0.773,-97.046,-115.906,-137.207
0.367,0.554,0.724,-95.154,-125.183,-136.597
0.290,0.563,0.681,-93.018,-134.521,-137.268
0.213,0.583,0.648,-91.003,-142.639,-138.916
0.135,0.617,0.633,-89.294,-148.132,-140.564
0.072,0.671,0.630,-87.219,-150.635,-140.991
0.015,0.715,0.632,-84.412,-151.184,-139.099
-0.011,0.734,0.625,-80.811,-150.696,-134.216
-0.026,0.734,0.593,-76.660,-151.733,-127.991
-0.070,0.728,0.560,-72.449,-155.945,-123.413
-0.132,0.696,0.505,-69.092,-161.926,-120.667
-0.201,0.654,0.446,-67.322,-168.091,-117.798
-0.278,0.614,0.402,-67.383,-172.852,-115.112
-0.338,0.590,0.378,-69.275,-174.866,-113.037
-0.360,0.578,0.359,-72.205,-174.500,-111.389
-0.378,0.574,0.351,-75.317,-173.279,-109.436
-0.393,0.593,0.362,-77.820,-172.180,-107.605
-0.428,0.616,0.351,-79.529,-171.387,-105.103
-0.464,0.617,0.311,-79.529,-171.021,-101.929
-0.504,0.633,0.285,-79.285,-171.509,-98.816
-0.526,0.643,0.244,-78.003,-172.119,-96.436
-0.552,0.641,0.204,-76.416,-172.302,-94.971
-0.573,0.637,0.179,-75.073,-171.936,-93.933
-0.569,0.631,0.162,-74.158,-170.776,-92.834
-0.567,0.613,0.154,-74.097,-169.739,-91.492
-0.575,0.625,0.164,-75.134,-168.884,-90.515
-0.610,0.653,0.185,-76.172,-167.480,-89.722
-0.622,0.675,0.193,-76.172,-165.710,-88.928
-0.650,0.688,0.173,-75.378,-165.039,-86.853
-0.692,0.688,0.165,-73.853,-165.527,-83.557
-0.718,0.661,0.141,-71.960,-165.649,-80.566
-0.724,0.632,0.111,-70.801,-165.344,-78.796
-0.709,0.606,0.072,-71.533,-165.649,-79.468
-0.683,0.578,0.023,-74.097,-166.870,-80.933
-0.669,0.583,-0.023,-78.735,-169.250,-82.520
-0.706,0.610,-0.053,-84.717,-171.936,-84.351
-0.760,0.672,-0.060,-90.759,-172.852,-85.815
-0.777,0.701,-0.090,-95.398,-169.983,-85.632
-0.794,0.775,-0.117,-97.778,-165.710,-84.106
-0.770,0.793,-0.154,-97.168,-160.645,-81.299
-0.760,0.831,-0.160,-93.628,-156.738,-78.674
-0.758,0.830,-0.180,-89.233,-154.541,-76.538
-0.758,0.824,-0.201,-84.473,-152.527,-75.134
-0.757,0.817,-0.226,-80.261,-151.794,-73.181

-1.356,1.255,-0.173,59.326,82.764,-7.690
-1.438,1.330,-0.176,62.134,92.590,-2.441
-1.521,1.400,-0.176,66.528,103.638,4.456
-1.599,1.469,-0.206,73.364,116.333,11.597
-1.661,1.533,-0.237,82.397,129.211,18.860
-1.714,1.602,-0.263,93.262,142.578,25.940
-1.764,1.637,-0.302,106.018,155.945,33.691
-1.810,1.633,-0.348,118.835,169.678,42.847
-1.832,1.624,-0.406,129.761,183.838,53.528
-1.805,1.635,-0.459,138.733,197.815,63.904
-1.765,1.673,-0.513,144.775,210.388,73.547
-1.731,1.722,-0.569,148.193,221.924,83.862
-1.683,1.767,-0.629,149.353,233.459,95.154
-1.656,1.832,-0.685,149.719,244.446,107.361
-1.607,1.908,-0.743,151.001,256.470,119.141
-1.544,1.967,-0.774,154.968,270.386,130.066
-1.447,2.020,-0.799,162.903,284.851,141.541
-1.289,2.076,-0.829,175.049,298.035,154.236
-1.098,2.098,-0.845,191.650,307.068,168.030
-0.886,2.092,-0.852,211.182,310.303,181.458
-0.703,2.018,-0.864,231.140,308.167,193.970
-0.517,1.883,-0.866,248.230,302.612,206.238
-0.354,1.697,-0.860,259.766,295.227,218.079
-0.185,1.502,-0.837,264.465,286.865,229.309
-0.006,1.333,-0.796,261.963,277.283,238.647
0.158,1.187,-0.734,254.089,267.090,244.507
0.288,1.061,-0.678,242.859,255.554,246.948
0.401,0.947,-0.625,229.126,243.774,247.742
0.514,0.857,-0.567,213.745,231.689,246.826
0.666,0.774,-0.505,197.693,220.459,243.652
0.811,0.712,-0.435,181.335,209.717,237.854
0.944,0.688,-0.374,166.016,199.524,230.347
1.040,0.754,-0.305,153.381,189.148,221.130
1.133,0.836,-0.230,146.057,179.749,211.182
1.211,0.864,-0.178,144.714,171.631,203.003
1.240,0.837,-0.116,147.339,165.344,197.754
1.328,0.773,-0.071,151.672,160.583,193.970
1.414,0.652,-0.049,155.396,155.457,191.223
1.463,0.495,0.010,157.104,148.743,188.049
1.558,0.329,0.065,155.579,141.541,183.289
1.612,0.145,0.131,150.085,133.484,175.964
1.664,-0.053,0.192,139.893,123.901,166.321
1.675,-0.238,0.270,125.671,112.000,155.457
1.640,-0.381,0.338,107.056,97.900,142.578
1.600,-0.502,0.372,85.632,82.458,127.747
1.515,-0.565,0.417,61.584,65.308,112.854
1.428,-0.548,0.450,36.499,48.462,99.060
1.352,-0.492,0.487,13.184,34.424,87.708
1.292,-0.437,0.540,-5.737,24.048,78.003
1.242,-0.372,0.594,-20.386,17.334,68.298
1.169,-0.310,0.668,-30.090,13.062,57.617
1.126,-0.251,0.730,-34.058,10.681,46.509
1.079,-0.219,0.781,-33.264,8.667,36.560
1.032,-0.228,0.823,-29.907,5.859,28.320
1.014,-0.245,0.848,-26.245,2.136,21.118
1.017,-0.262,0.868,-23.804,-2.380,14.038
1.006,-0.266,0.891,-22.888,-7.507,6.836
0.980,-0.272,0.911,-22.949,-11.902,-0.854
0.979,-0.263,0.922,-23.499,-15.076,-8.240
0.976,-0.259,0.926,-24.292,-18.005,-16.418
0.955,-0.263,0.923,-25.940,-21.790,-24.963
0.957,-0.255,0.912,-29.480,-26.184,-33.997
0.972,-0.226,0.900,-35.156,-31.067,-43.213
0.992,-0.173,0.900,-42.847,-37.109,-51.331
0.992,-0.102,0.903,-51.147,-43.701,-57.495
0.983,-0.026,0.904,-58.960,-50.598,-62.378
0.950,0.033,0.897,-65.063,-57.373,-66.772
0.900,0.080,0.885,-69.031,-64.392,-71.350
0.854,0.119,0.856,-71.289,-71.167,-76.904
0.804,0.145,0.816,-72.388,-77.942,-82.642
0.746,0.152,0.776,-73.486,-83.923,-88.623
0.705,0.159,0.738,-75.134,-88.928,-94.666
0.689,0.183,0.702,-78.308,-92.896,-100.342
0.652,0.231,0.694,-82.703,-96.497,-104.980
0.603,0.288,0.708,-87.280,-100.403,-107.849
0.557,0.344,0.721,-90.210,-104.370,-109.131
0.523,0.376,0.716,-91.309,-109.497,-110.352
0.490,0.392,0.701,-91.064,-116.760,-111.328
0.444,0.396,0.672,-89.966,-126.038,-112.122
0.392,0.399,0.637,-88.623,-135.620,-113.586
0.340,0.407,0.599,-88.135,-145.081,-117.004
0.295,0.409,0.565,-89.233,-153.442,-121.460
0.238,0.414,0.541,-92.163,-160.156,-123.840
0.171,0.442,0.542,-97.290,-165.771,-123.535
0.115,0.467,0.537,-102.722,-170.654,-120.850
0.099,0.492,0.514,-106.995,-175.842,-117.371
0.096,0.499,0.469,-110.718,-182.800,-114.258
0.093,0.494,0.387,-114.319,-192.505,-111.450
0.046,0.498,0.310,-118.347,-203.979,-109.863
-0.018,0.505,0.234,-123.108,-214.844,-108.826
-0.088,0.521,0.154,-127.991,-223.450,-107.422
-0.185,0.547,0.097,-132.446,-229.187,-105.408
-0.294,0.586,0.062,-135.742,-230.530,-103.088
-0.372,0.646,0.058,-136.841,-227.539,-101.135
-0.426,0.722,0.061,-134.949,-221.741,-98.694
-0.435,0.780,0.069,-129.456,-215.088,-95.093
-0.426,0.829,0.076,-120.544,-209.595,-89.294
-0.430,0.819,0.078,-108.704,-206.726,-81.787
-0.415,0.766,0.071,-96.252,-206.177,-74.768
-0.420,0.675,0.042,-85.754,-208.130,-70.313
-0.446,0.575,0.004,-79.590,-211.731,-68.848
-0.463,0.467,-0.042,-78.857,-215.637,-69.519
-0.517,0.420,-0.077,-83.496,-219.971,-72.571
-0.637,0.433,-0.060,-92.773,-222.351,-77.942
-0.723,0.481,-0.038,-103.577,-219.482,-82.886
-0.729,0.550,-0.055,-113.464,-212.158,-85.388
-0.695,0.629,-0.079,-120.850,-204.895,-84.290
-0.667,0.697,-0.088,-124.878,-201.538,-80.811
-0.639,0.758,-0.111,-125.000,-201.416,-75.867
-0.636,0.784,-0.144,-122.070,-204.285,-70.923
-0.653,0.772,-0.194,-117.126,-208.435,-67.139
-0.713,0.767,-0.232,-112.061,-212.891,-66.162
-0.828,0.788,-0.245,-108.032,-215.149,-67.139
-0.908,0.818,-0.229,-103.577,-212.341,-68.176
-0.959,0.838,-0.226,-98.267,-204.712,-68.848
-0.971,0.857,-0.213,-92.957,-195.862,-68.054
-0.943,0.881,-0.229,-86.792,-187.378,-66.589
-0.920,0.907,-0.253,-79.834,-181.458,-65.369
-0.939,0.943,-0.282,-71.594,-178.284,-65.308

-1.120,1.158,-0.382,-49.805,-112.549,-82.703
-1.082,1.254,-0.367,-48.035,-91.675,-81.299
-1.043,1.335,-0.355,-42.175,-72.083,-76.965
-0.983,1.370,-0.334,-32.593,-55.969,-71.411
-0.926,1.370,-0.314,-20.203,-44.556,-64.758
-0.884,1.334,-0.300,-7.141,-37.781,-57.739
-0.864,1.265,-0.290,3.662,-34.668,-50.720
-0.869,1.162,-0.301,11.047,-33.142,-43.030
-0.893,1.067,-0.303,12.329,-31.433,-36.133
-0.910,1.011,-0.303,7.263,-29.297,-30.945
-0.899,0.982,-0.299,-0.610,-26.489,-27.222
-0.884,0.984,-0.291,-8.972,-24.353,-24.048
-0.864,1.004,-0.288,-16.418,-23.010,-21.729
-0.839,1.025,-0.283,-21.179,-22.278,-19.531
-0.825,1.042,-0.272,-22.522,-22.095,-16.357
-0.792,1.057,-0.273,-20.996,-21.973,-12.573
-0.763,1.058,-0.278,-17.395,-22.400,-8.301
-0.759,1.052,-0.273,-12.512,-22.644,-4.944
-0.753,1.028,-0.270,-7.996,-21.362,-2.747
-0.736,1.011,-0.266,-4.211,-18.066,-0.244
-0.706,0.992,-0.260,-1.343,-13.489,2.258
-0.679,0.956,-0.253,0.732,-8.911,4.456
-0.641,0.927,-0.241,2.258,-5.127,5.981
-0.607,0.901,-0.230,3.296,-2.686,7.202
-0.572,0.885,-0.224,4.456,-1.160,8.423
-0.561,0.864,-0.222,5.188,-0.916,9.583
-0.562,0.848,-0.219,6.104,-0.977,10.559
-0.558,0.841,-0.214,6.714,-0.854,10.681
-0.548,0.827,-0.212,7.385,-0.305,10.864
-0.540,0.816,-0.208,8.362,0.183,11.658
-0.530,0.800,-0.208,8.911,0.854,13.000
-0.517,0.781,-0.213,8.850,1.282,13.916
-0.512,0.768,-0.219,8.423,0.854,14.526
-0.506,0.751,-0.225,7.812,0.427,14.282
-0.499,0.740,-0.228,6.714,-0.061,13.733
-0.488,0.746,-0.229,5.310,-0.610,12.695
-0.484,0.759,-0.227,3.662,-1.343,11.902
-0.480,0.777,-0.222,2.258,-2.319,11.902
-0.488,0.786,-0.219,1.160,-3.174,12.573
-0.496,0.786,-0.216,0.549,-3.601,13.550
-0.499,0.781,-0.221,-0.183,-3.662,13.855
-0.507,0.775,-0.224,-0.549,-3.662,13.489
-0.510,0.769,-0.225,-0.916,-3.357,12.451
-0.507,0.770,-0.225,-1.099,-3.052,10.803
-0.500,0.779,-0.221,-1.587,-2.502,9.521
-0.491,0.798,-0.213,-1.648,-2.014,8.911
-0.477,0.819,-0.205,-1.465,-1.953,8.545
-0.477,0.830,-0.198,-0.854,-2.319,8.301
-0.482,0.836,-0.190,-0.183,-2.625,8.484
-0.489,0.834,-0.190,0.488,-2.502,8.850
-0.500,0.829,-0.191,0.854,-2.014,9.033
-0.506,0.819,-0.192,1.160,-1.221,8.850
-0.503,0.805,-0.188,1.221,-0.061,8.179
-0.493,0.796,-0.179,1.038,0.793,7.507
-0.486,0.793,-0.168,0.793,1.221,7.141
-0.481,0.793,-0.162,0.610,1.465,6.775
-0.477,0.792,-0.154,0.793,1.038,6.531
-0.475,0.793,-0.152,1.221,0.305,5.615
-0.481,0.797,-0.154,1.648,-0.610,4.700
-0.498,0.796,-0.157,2.014,-1.160,4.028
-0.505,0.790,-0.158,2.441,-1.221,3.418
-0.513,0.774,-0.164,2.502,-1.038,2.563
-0.517,0.767,-0.167,2.075,-0.549,1.648
-0.515,0.767,-0.167,1.160,0.122,0.366
-0.499,0.784,-0.161,0.122,0.732,-0.732
-0.487,0.805,-0.161,-0.671,0.488,-1.160
-0.487,0.828,-0.163,-0.610,-0.244,-1.099
-0.499,0.837,-0.164,0.000,-0.916,-0.977
-0.503,0.834,-0.169,0.854,-1.099,-1.160
-0.499,0.827,-0.172,1.526,-0.610,-1.343
-0.495,0.824,-0.173,1.587,-0.427,-1.099
-0.498,0.820,-0.171,1.221,-0.366,-0.732
-0.503,0.816,-0.169,0.305,-0.305,-0.488
-0.507,0.821,-0.166,-0.305,0.000,-0.793
-0.505,0.829,-0.164,-0.366,0.610,-1.404
-0.502,0.833,-0.166,0.061,1.099,-1.465
-0.501,0.830,-0.168,0.732,1.282,-1.587
-0.506,0.817,-0.172,1.282,1.648,-1.465
-0.503,0.806,-0.174,1.282,1.831,-1.404
-0.500,0.807,-0.169,0.732,1.953,-1.282
-0.496,0.811,-0.168,0.183,1.953,-1.160
-0.499,0.824,-0.167,-0.305,1.831,-0.916
-0.503,0.831,-0.161,-0.244,1.465,-1.099
-0.501,0.836,-0.159,0.061,1.282,-1.404
-0.500,0.838,-0.160,0.916,1.038,-1.160
-0.501,0.831,-0.158,1.587,0.793,-0.671
-0.502,0.820,-0.162,2.319,0.671,-0.366
-0.494,0.809,-0.165,2.319,0.854,-0.366
-0.490,0.801,-0.167,1.648,0.977,-0.671
-0.488,0.798,-0.166,0.366,0.854,-0.549
-0.490,0.801,-0.162,-1.160,0.977,-0.305
-0.490,0.813,-0.162,-2.625,0.549,-0.061
-0.496,0.824,-0.161,-3.296,0.183,0.366
-0.501,0.834,-0.159,-3.235,0.000,0.122
-0.502,0.841,-0.158,-2.258,0.122,-0.305
-0.498,0.842,-0.157,-0.732,0.244,-0.732
-0.499,0.834,-0.157,0.977,0.244,-0.916
-0.501,0.824,-0.156,2.319,0.488,-0.732
-0.499,0.814,-0.157,2.808,0.977,-0.549
-0.496,0.807,-0.157,2.808,1.648,-0.671
-0.490,0.812,-0.153,1.831,2.197,-0.977
-0.479,0.813,-0.151,0.793,2.380,-0.854
-0.477,0.813,-0.148,0.000,2.014,-0.488
-0.484,0.809,-0.148,-0.793,1.160,0.000
-0.492,0.805,-0.151,-1.343,0.732,0.183
-0.497,0.802,-0.152,-1.587,0.305,-0.427
-0.493,0.808,-0.154,-1.587,0.488,-0.977
-0.496,0.815,-0.156,-1.648,0.488,-1.526
-0.498,0.824,-0.156,-1.465,0.366,-1.770
-0.499,0.831,-0.158,-1.221,0.488,-2.014
-0.498,0.838,-0.158,-0.366,0.610,-2.075
-0.497,0.840,-0.159,0.366,0.854,-1.953
-0.494,0.836,-0.159,1.465,1.038,-1.526
-0.492,0.831,-0.159,2.319,1.343,-0.977
-0.492,0.818,-0.156,2.380,1.282,-0.488
-0.489,0.812,-0.152,1.526,1.038,0.244
-0.488,0.809,-0.151,0.305,0.610,0.488
-0.491,0.812,-0.151,-0.916,-0.183,0.488
-0.498,0.815,-0.152,-2.136,-0.488,-0.122

-1.316,1.078,-0.246,50.842,59.875,-0.854
-1.404,1.121,-0.257,59.692,71.655,1.831
-1.496,1.163,-0.276,69.580,83.984,4.822
-1.588,1.204,-0.298,79.895,96.680,8.362
-1.685,1.243,-0.313,90.332,109.497,12.817
-1.774,1.292,-0.343,100.220,122.131,18.311
-1.876,1.337,-0.386,109.314,135.254,25.940
-1.976,1.391,-0.436,117.188,149.048,35.950
-2.073,1.439,-0.477,123.535,163.452,47.241
-2.134,1.490,-0.497,129.456,179.687,59.448
-2.174,1.557,-0.520,135.254,197.266,71.106
-2.184,1.630,-0.561,141.968,214.600,82.520
-2.183,1.714,-0.625,149.658,230.347,95.154
-2.177,1.813,-0.692,158.325,243.774,110.718
-2.176,1.903,-0.715,167.786,255.554,126.587
-2.131,1.996,-0.731,179.016,270.020,142.639
-1.985,2.091,-0.752,193.481,286.865,159.241
-1.758,2.168,-0.777,211.487,303.772,176.758
-1.505,2.195,-0.811,231.995,318.298,196.167
-1.227,2.176,-0.836,252.563,329.651,216.187
-0.948,2.098,-0.852,272.095,337.158,236.084
-0.652,1.976,-0.839,288.757,340.149,253.723
-0.355,1.840,-0.801,301.514,339.050,268.982
-0.079,1.682,-0.751,309.631,333.008,279.968
0.191,1.494,-0.682,312.988,322.632,287.415
0.447,1.317,-0.599,309.875,308.350,291.565
0.724,1.117,-0.540,300.232,291.138,293.152
0.947,0.903,-0.495,283.081,271.362,291.687
1.110,0.708,-0.452,258.362,251.343,285.950
1.201,0.585,-0.417,228.149,233.398,275.452
1.242,0.504,-0.395,195.251,218.201,261.902
1.314,0.473,-0.372,163.147,206.543,247.070
1.351,0.462,-0.339,135.376,196.655,231.323
1.399,0.474,-0.291,115.112,188.782,214.722
1.481,0.504,-0.251,102.783,181.396,197.388
1.615,0.495,-0.202,98.572,173.157,180.481
1.676,0.423,-0.139,99.854,162.537,165.649
1.701,0.293,-0.095,103.577,150.085,153.564
1.679,0.094,-0.037,106.079,135.986,141.663
1.620,-0.088,0.004,104.065,120.911,129.089
1.542,-0.290,0.039,96.802,105.103,116.699
1.444,-0.432,0.082,82.764,88.989,103.333
1.308,-0.522,0.146,62.805,73.120,88.379
1.207,-0.542,0.234,39.368,59.326,73.303
1.160,-0.510,0.321,16.357,48.218,58.899
1.130,-0.468,0.413,-3.418,38.757,45.227
1.095,-0.420,0.495,-19.287,29.724,32.776
1.021,-0.369,0.570,-31.555,20.630,22.034
0.954,-0.337,0.633,-40.771,12.756,13.367
0.897,-0.302,0.697,-47.485,6.531,5.432
0.867,-0.255,0.765,-52.612,1.770,-2.014
0.866,-0.212,0.828,-55.786,-1.770,-8.545
0.870,-0.184,0.878,-56.946,-5.249,-14.832
0.869,-0.165,0.920,-56.519,-9.521,-21.179
0.873,-0.162,0.938,-55.481,-14.648,-28.625
0.877,-0.143,0.950,-54.382,-20.569,-36.987
0.878,-0.108,0.952,-54.138,-27.100,-45.776
0.874,-0.081,0.947,-55.603,-33.386,-54.077
0.872,-0.067,0.940,-58.594,-38.757,-60.852
0.895,-0.064,0.928,-63.416,-43.701,-66.895
0.912,-0.053,0.903,-70.801,-50.598,-73.242
0.890,-0.026,0.881,-80.261,-60.059,-79.468
0.845,0.014,0.851,-90.332,-71.106,-85.327
0.774,0.059,0.814,-100.037,-81.482,-90.515
0.702,0.121,0.797,-108.521,-89.905,-95.825
0.658,0.196,0.779,-114.624,-96.069,-101.196
0.620,0.255,0.761,-117.798,-101.563,-105.469
0.569,0.289,0.747,-118.347,-108.215,-108.154
0.545,0.302,0.722,-117.065,-115.845,-110.291
0.503,0.306,0.689,-114.990,-124.634,-112.610
0.428,0.306,0.648,-113.892,-133.423,-115.295
0.315,0.327,0.630,-113.892,-140.625,-117.615
0.229,0.358,0.614,-114.563,-144.348,-119.507
0.170,0.398,0.615,-115.234,-144.653,-120.117
0.121,0.429,0.639,-115.417,-143.799,-119.568
0.095,0.455,0.646,-114.807,-142.822,-118.164
0.086,0.463,0.640,-112.610,-143.738,-117.065
0.062,0.461,0.627,-109.680,-148.193,-117.065
0.034,0.460,0.606,-106.934,-155.640,-117.798
-0.006,0.470,0.547,-105.042,-164.490,-118.347
-0.103,0.480,0.483,-104.370,-172.485,-118.591
-0.208,0.474,0.422,-105.774,-177.368,-118.042
-0.291,0.482,0.378,-108.887,-176.758,-115.906
-0.348,0.527,0.369,-112.427,-171.814,-113.220
-0.378,0.615,0.388,-114.075,-164.246,-110.962
-0.378,0.680,0.399,-111.572,-156.189,-108.948
-0.375,0.717,0.415,-104.858,-149.902,-106.750
-0.400,0.772,0.472,-96.008,-146.545,-104.492
-0.402,0.803,0.502,-85.815,-145.203,-101.074
-0.411,0.790,0.508,-75.439,-146.240,-96.497
-0.439,0.740,0.500,-66.650,-148.865,-91.187
-0.466,0.685,0.475,-61.523,-151.794,-87.585
-0.489,0.624,0.443,-60.486,-154.236,-86.548
-0.499,0.578,0.407,-63.599,-155.640,-86.670
-0.490,0.549,0.358,-70.435,-156.372,-87.097
-0.513,0.552,0.324,-80.261,-157.654,-87.769
-0.547,0.597,0.316,-91.309,-158.569,-88.257
-0.540,0.669,0.300,-101.501,-157.837,-87.646
-0.547,0.761,0.283,-109.131,-157.654,-85.022
-0.580,0.843,0.275,-112.793,-158.386,-80.078
-0.629,0.902,0.264,-111.877,-158.630,-73.914
-0.668,0.945,0.247,-106.384,-157.776,-67.505
-0.687,0.964,0.232,-97.107,-156.128,-62.073
-0.691,0.941,0.214,-86.060,-153.992,-58.289
-0.686,0.890,0.186,-75.806,-151.550,-56.274
-0.687,0.843,0.167,-68.420,-149.048,-54.688
-0.711,0.818,0.158,-65.247,-145.996,-52.673
-0.713,0.810,0.142,-65.186,-141.968,-50.537
-0.695,0.817,0.125,-66.711,-138.123,-48.706
-0.692,0.821,0.113,-68.909,-135.376,-47.058
-0.687,0.819,0.101,-71.045,-133.728,-45.288
-0.689,0.803,0.082,-73.303,-132.507,-43.396
-0.690,0.800,0.064,-75.989,-131.775,-41.809
-0.699,0.794,0.042,-78.186,-131.531,-40.588
-0.726,0.802,0.016,-80.078,-131.348,-39.917
-0.765,0.827,-0.001,-81.421,-130.493,-40.039
-0.808,0.843,-0.018,-81.543,-128.052,-40.833
-0.853,0.892,-0.025,-80.688,-123.535,-41.931
-0.848,0.870,-0.078,-77.942,-115.845,-43.213

-1.324,1.293,-0.175,31.555,43.884,-29.663
-1.398,1.418,-0.191,34.058,51.636,-25.757
-1.481,1.535,-0.193,38.086,61.279,-19.409
-1.567,1.638,-0.216,44.128,72.449,-10.864
-1.622,1.734,-0.244,52.856,85.266,-1.343
-1.682,1.824,-0.267,64.758,98.389,8.484
-1.719,1.889,-0.304,78.674,112.000,18.372
-1.759,1.947,-0.332,93.384,126.099,28.992
-1.772,1.993,-0.355,107.788,142.029,41.504
-1.762,2.013,-0.395,120.850,159.302,55.542
-1.741,2.026,-0.429,132.141,176.697,71.350
-1.695,2.025,-0.459,141.724,193.787,87.463
-1.621,2.037,-0.496,149.353,209.351,102.539
-1.539,2.064,-0.531,155.029,223.877,116.943
-1.448,2.113,-0.561,159.668,237.915,131.348
-1.341,2.166,-0.598,165.344,251.831,146.851
-1.229,2.203,-0.656,172.729,266.541,163.025
-1.100,2.219,-0.709,182.983,280.884,180.237
-0.934,2.214,-0.750,196.594,294.800,198.120
-0.725,2.167,-0.781,213.257,305.847,214.844
-0.515,2.053,-0.809,230.774,311.768,230.042
-0.331,1.890,-0.819,246.887,311.462,243.347
-0.192,1.695,-0.809,258.545,306.274,253.235
-0.066,1.514,-0.790,264.771,299.744,260.742
0.083,1.362,-0.769,264.832,293.152,267.029
0.209,1.202,-0.735,259.766,285.095,273.193
0.313,1.063,-0.685,250.061,275.574,278.015
0.398,0.944,-0.620,237.976,266.052,279.907
0.473,0.851,-0.563,223.877,256.653,277.832
0.543,0.775,-0.504,209.961,247.375,273.743
0.634,0.701,-0.460,197.205,237.793,269.165
0.709,0.619,-0.415,185.791,226.196,263.855
0.762,0.527,-0.352,174.744,213.318,256.409
0.817,0.464,-0.291,163.208,200.928,247.375
0.851,0.398,-0.225,151.794,188.049,237.915
0.896,0.335,-0.160,140.320,175.537,227.783
0.918,0.252,-0.093,128.357,163.574,217.773
0.945,0.185,-0.027,115.173,153.320,207.825
0.983,0.128,0.038,101.013,145.142,197.510
1.028,0.076,0.097,86.548,138.428,187.683
1.060,0.033,0.170,72.754,132.141,178.467
1.085,-0.013,0.238,60.059,126.282,169.739
1.106,-0.064,0.302,49.377,120.422,160.767
1.110,-0.116,0.369,41.138,113.586,150.940
1.133,-0.160,0.432,35.095,105.225,139.709
1.164,-0.186,0.499,31.372,95.337,127.136
1.177,-0.202,0.573,29.297,84.167,114.014
1.193,-0.224,0.623,28.564,73.425,100.891
1.186,-0.260,0.668,28.320,62.195,88.501
1.169,-0.323,0.702,27.344,50.964,76.965
1.126,-0.394,0.726,24.475,40.649,65.430
1.074,-0.454,0.746,18.677,31.677,53.406
1.021,-0.483,0.769,10.620,23.682,41.504
0.980,-0.483,0.786,1.587,16.113,29.236
0.951,-0.455,0.797,-7.141,8.789,16.846
0.930,-0.403,0.814,-15.259,1.770,4.822
0.903,-0.354,0.824,-22.278,-4.272,-5.493
0.878,-0.297,0.834,-28.015,-10.010,-14.771
0.858,-0.242,0.850,-32.715,-15.442,-23.499
0.843,-0.213,0.853,-36.316,-20.447,-31.006
0.811,-0.185,0.856,-39.917,-24.414,-37.720
0.792,-0.157,0.856,-43.213,-27.649,-44.128
0.781,-0.106,0.860,-46.387,-30.029,-50.720
0.776,-0.055,0.861,-48.401,-32.227,-57.190
0.763,-0.000,0.858,-49.011,-34.302,-63.477
0.759,0.044,0.852,-47.668,-36.865,-69.763
0.767,0.075,0.837,-45.410,-40.222,-75.256
0.771,0.095,0.822,-43.091,-44.861,-79.895
0.770,0.120,0.826,-41.443,-50.110,-84.473
0.752,0.119,0.823,-41.321,-54.932,-88.135
0.730,0.108,0.824,-42.725,-59.204,-91.003
0.715,0.101,0.825,-46.021,-62.866,-94.055
0.713,0.095,0.809,-50.476,-67.139,-97.717
0.699,0.095,0.789,-55.725,-72.571,-102.234
0.672,0.090,0.757,-61.523,-79.163,-107.422
0.663,0.101,0.717,-67.932,-86.426,-112.610
0.667,0.144,0.693,-74.646,-93.933,-117.798
0.655,0.203,0.688,-81.116,-102.051,-122.253
0.613,0.264,0.685,-86.548,-110.596,-124.756
0.552,0.309,0.685,-90.149,-119.141,-125.854
0.503,0.342,0.669,-92.346,-127.747,-126.465
0.450,0.358,0.647,-93.018,-136.597,-127.686
0.402,0.374,0.614,-93.262,-144.897,-129.700
0.347,0.380,0.575,-93.262,-152.710,-131.775
0.296,0.395,0.543,-93.994,-159.363,-132.935
0.254,0.436,0.519,-96.008,-164.307,-132.629
0.233,0.498,0.500,-97.778,-167.847,-131.470
0.214,0.534,0.480,-99.365,-171.875,-129.700
0.202,0.543,0.423,-100.769,-177.856,-127.502
0.113,0.538,0.366,-103.333,-186.218,-125.732
0.015,0.519,0.308,-107.605,-193.665,-125.610
-0.064,0.516,0.243,-113.281,-198.303,-125.183
-0.137,0.554,0.209,-119.385,-200.623,-124.146
-0.175,0.623,0.185,-123.962,-201.233,-121.826
-0.208,0.708,0.174,-125.549,-200.500,-118.591
-0.233,0.762,0.189,-123.291,-199.341,-114.807
-0.265,0.801,0.215,-118.164,-198.181,-110.474
-0.299,0.797,0.210,-111.450,-198.181,-105.713
-0.343,0.755,0.168,-104.797,-199.768,-101.746
-0.428,0.684,0.126,-100.464,-202.087,-99.426
-0.511,0.617,0.068,-99.609,-202.820,-98.511
-0.585,0.581,0.018,-102.844,-200.867,-99.182
-0.619,0.600,-0.004,-108.215,-195.923,-100.220
-0.625,0.682,-0.015,-112.976,-189.026,-100.769
-0.641,0.771,0.006,-114.807,-182.007,-99.976
-0.629,0.858,0.033,-112.122,-174.866,-98.389
-0.645,0.917,0.076,-105.652,-168.640,-96.191
-0.676,0.948,0.137,-97.168,-163.025,-93.018
-0.668,0.948,0.172,-87.830,-157.288,-89.050
-0.653,0.923,0.183,-79.651,-153.809,-85.266
-0.650,0.876,0.183,-73.059,-153.442,-82.092
-0.653,0.809,0.159,-69.397,-155.701,-79.895
-0.670,0.733,0.117,-68.848,-159.424,-78.796
-0.688,0.669,0.069,-72.266,-163.208,-79.407
-0.694,0.637,0.017,-78.857,-166.260,-82.336
-0.708,0.637,-0.035,-88.074,-168.640,-86.426
-0.756,0.691,-0.057,-98.328,-170.410,-90.454
-0.801,0.794,-0.060,-107.056,-169.861,-93.262
-0.803,0.907,-0.064,-111.816,-166.870,-94.421

-1.167,1.376,-0.218,45.227,74.524,-45.410
-1.219,1.487,-0.240,50.293,82.336,-42.419
-1.267,1.581,-0.262,57.617,91.675,-36.926
-1.300,1.661,-0.286,67.261,101.990,-29.724
-1.339,1.724,-0.304,77.881,112.549,-21.240
-1.383,1.759,-0.319,88.806,123.413,-11.353
-1.417,1.784,-0.342,99.304,135.193,-0.977
-1.417,1.802,-0.353,108.643,147.705,10.864
-1.385,1.817,-0.354,116.821,159.607,23.743
-1.330,1.833,-0.367,123.596,170.654,37.842
-1.299,1.822,-0.371,129.272,180.237,53.223
-1.270,1.801,-0.376,133.789,188.904,68.787
-1.220,1.801,-0.399,137.085,197.388,83.435
-1.171,1.799,-0.415,139.709,205.139,97.534
-1.139,1.807,-0.438,142.090,212.585,112.122
-1.085,1.815,-0.466,145.203,220.886,126.343
-1.002,1.817,-0.484,149.292,229.309,139.771
-0.909,1.813,-0.499,154.297,236.633,152.283
-0.820,1.806,-0.523,160.156,241.943,164.368
-0.735,1.801,-0.549,166.138,244.812,175.293
-0.633,1.798,-0.568,171.753,245.911,185.303
-0.505,1.792,-0.578,176.575,246.033,194.580
-0.395,1.772,-0.591,179.260,245.117,203.979
-0.313,1.726,-0.599,180.237,243.469,215.088
-0.247,1.668,-0.603,179.687,242.126,226.868
-0.152,1.619,-0.605,178.650,241.455,237.122
-0.039,1.577,-0.585,178.101,240.845,244.812
0.094,1.522,-0.545,178.711,239.929,250.366
0.248,1.448,-0.508,180.298,237.976,255.310
0.405,1.348,-0.465,182.251,233.704,259.888
0.523,1.220,-0.411,183.716,226.013,263.306
0.616,1.075,-0.350,183.655,215.942,264.954
0.697,0.928,-0.288,182.068,204.956,265.015
0.772,0.787,-0.201,178.589,193.787,263.367
0.877,0.634,-0.103,173.096,183.289,260.193
1.008,0.479,-0.018,165.649,172.852,255.737
1.137,0.318,0.047,155.945,160.706,249.023
1.211,0.171,0.106,144.226,146.362,240.112
1.227,0.027,0.168,130.493,130.859,228.027
1.213,-0.094,0.221,115.967,117.249,214.783
1.178,-0.192,0.263,100.830,105.835,200.745
1.156,-0.256,0.299,85.754,96.558,185.730
1.170,-0.275,0.328,71.472,88.745,168.823
1.156,-0.271,0.365,59.082,80.322,151.123
1.134,-0.238,0.404,48.706,72.449,133.667
1.115,-0.207,0.439,40.161,65.308,118.042
1.100,-0.165,0.464,33.447,59.509,105.164
1.092,-0.136,0.499,28.442,54.382,94.604
1.076,-0.119,0.535,24.841,49.255,84.534
1.063,-0.098,0.575,21.973,44.617,73.486
1.049,-0.089,0.621,20.020,40.527,61.401
1.042,-0.104,0.647,17.944,36.621,50.354
1.024,-0.112,0.666,15.320,32.166,40.955
0.987,-0.133,0.682,11.108,26.794,32.043
0.929,-0.167,0.694,5.066,22.156,23.804
0.874,-0.179,0.717,-2.136,18.799,16.357
0.816,-0.175,0.744,-10.010,16.968,8.728
0.775,-0.154,0.776,-17.517,16.296,0.732
0.745,-0.120,0.812,-23.315,15.503,-7.141
0.734,-0.096,0.843,-26.306,14.709,-16.113
0.735,-0.067,0.867,-27.344,12.817,-25.146
0.745,-0.017,0.898,-27.283,9.766,-33.203
0.733,0.025,0.918,-26.245,5.676,-39.734
0.718,0.052,0.925,-24.780,1.221,-44.312
0.682,0.058,0.930,-23.376,-3.479,-47.974
0.646,0.041,0.932,-23.071,-7.996,-51.941
0.613,0.026,0.929,-24.597,-12.451,-56.885
0.598,0.025,0.919,-27.893,-16.541,-62.622
0.594,0.056,0.909,-32.227,-20.752,-69.275
0.606,0.105,0.901,-36.560,-26.062,-75.562
0.620,0.174,0.903,-41.077,-32.410,-81.116
0.613,0.235,0.904,-44.983,-39.795,-85.754
0.563,0.268,0.903,-48.767,-47.668,-88.074
0.500,0.281,0.899,-52.612,-54.504,-88.562
0.447,0.295,0.892,-56.213,-60.181,-89.111
0.401,0.314,0.884,-59.204,-65.430,-90.942
0.371,0.326,0.868,-60.730,-70.557,-93.933
0.355,0.336,0.840,-61.218,-75.989,-97.107
0.355,0.357,0.807,-61.157,-82.397,-100.098
0.347,0.375,0.782,-61.768,-89.783,-103.210
0.311,0.386,0.753,-63.538,-97.534,-105.652
0.253,0.395,0.736,-66.711,-105.469,-106.812
0.185,0.403,0.717,-70.862,-112.427,-107.300
0.123,0.423,0.695,-75.012,-118.225,-107.849
0.066,0.443,0.679,-78.247,-123.169,-109.314
0.030,0.454,0.656,-80.139,-127.014,-110.535
0.017,0.468,0.623,-80.505,-131.104,-111.328
0.013,0.484,0.589,-79.651,-136.658,-113.037
0.005,0.500,0.566,-78.186,-143.250,-116.028
-0.017,0.496,0.544,-77.332,-150.024,-119.141
-0.084,0.500,0.514,-78.552,-155.396,-119.080
-0.170,0.546,0.503,-81.238,-158.813,-114.990
-0.219,0.583,0.489,-83.313,-159.363,-109.009
-0.253,0.613,0.470,-84.106,-158.630,-104.248
-0.273,0.637,0.468,-83.984,-158.203,-101.074
-0.280,0.654,0.464,-82.520,-158.325,-98.389
-0.276,0.664,0.458,-79.834,-159.424,-95.886
-0.273,0.660,0.457,-76.355,-161.865,-94.360
-0.264,0.646,0.448,-72.998,-165.527,-94.482
-0.249,0.624,0.410,-71.228,-170.532,-95.886
-0.303,0.619,0.372,-71.960,-176.880,-97.534
-0.423,0.596,0.350,-75.623,-181.763,-98.267
-0.518,0.580,0.317,-81.116,-181.335,-96.741
-0.567,0.590,0.282,-88.318,-176.208,-94.910
-0.590,0.636,0.279,-95.398,-169.128,-92.407
-0.557,0.699,0.275,-99.915,-161.926,-89.783
-0.511,0.760,0.264,-100.708,-156.433,-87.341
-0.498,0.811,0.264,-97.839,-154.785,-85.449
-0.496,0.836,0.256,-92.285,-155.823,-84.167
-0.506,0.849,0.244,-85.266,-157.898,-83.313
-0.549,0.857,0.231,-78.186,-159.973,-83.069
-0.590,0.843,0.199,-71.838,-160.889,-83.435
-0.639,0.805,0.165,-67.017,-160.767,-83.252
-0.678,0.761,0.137,-65.247,-158.752,-82.764
-0.691,0.722,0.103,-67.078,-154.724,-82.153
-0.699,0.727,0.089,-71.045,-149.658,-81.726
-0.664,0.721,0.064,-75.562,-143.982,-81.421
-0.628,0.758,0.048,-80.017,-140.076,-81.177
-0.618,0.807,0.042,-83.252,-138.672,-80.566

-1.181,1.279,-0.185,7.690,55.847,10.132
-1.261,1.300,-0.218,16.296,65.002,14.465
-1.359,1.321,-0.234,25.757,73.547,18.372
-1.452,1.373,-0.264,36.316,82.031,21.912
-1.527,1.418,-0.308,48.889,91.370,26.123
-1.622,1.455,-0.337,63.232,101.685,30.640
-1.684,1.475,-0.367,78.064,114.563,35.522
-1.726,1.470,-0.401,91.614,129.639,41.626
-1.746,1.451,-0.445,102.783,145.691,49.805
-1.769,1.433,-0.493,110.901,160.461,58.472
-1.773,1.433,-0.552,115.662,172.852,66.406
-1.818,1.448,-0.595,118.530,182.678,74.280
-1.875,1.485,-0.661,121.277,191.956,83.557
-1.954,1.514,-0.750,123.901,201.416,93.506
-2.047,1.554,-0.841,125.488,211.243,104.126
-2.099,1.625,-0.946,124.451,222.717,115.295
-2.101,1.733,-1.036,120.239,234.375,126.892
-2.086,1.854,-1.108,112.732,244.141,140.198
-1.980,2.002,-1.174,104.004,252.686,156.372
-1.844,2.120,-1.205,97.839,262.512,174.805
-1.681,2.196,-1.236,98.328,273.804,193.787
-1.427,2.234,-1.269,105.957,286.865,209.717
-1.171,2.211,-1.285,120.178,300.171,221.558
-0.838,2.178,-1.266,138.916,312.866,231.262
-0.412,2.140,-1.245,159.912,322.632,241.943
-0.022,2.091,-1.191,180.664,325.623,255.676
0.271,1.937,-1.128,198.608,321.289,271.423
0.514,1.770,-1.032,210.754,312.561,282.959
0.734,1.593,-0.935,216.003,302.856,288.086
0.941,1.425,-0.812,215.332,292.480,288.879
1.135,1.228,-0.695,208.801,281.738,288.147
1.236,1.022,-0.572,197.388,268.799,287.476
1.319,0.788,-0.459,182.190,255.188,285.095
1.420,0.584,-0.343,165.161,241.089,276.672
1.481,0.392,-0.263,147.339,225.525,260.864
1.454,0.230,-0.191,129.272,209.106,241.150
1.423,0.136,-0.111,111.877,194.458,220.703
1.444,0.076,-0.035,96.252,182.129,202.271
1.485,0.022,0.018,84.351,169.983,186.157
1.500,-0.018,0.089,75.989,155.945,170.227
1.467,-0.048,0.160,70.923,141.968,151.550
1.407,-0.059,0.200,67.566,130.066,129.944
1.369,-0.040,0.244,65.613,121.155,109.314
1.329,-0.010,0.286,64.880,113.770,91.919
1.298,-0.022,0.338,64.148,106.506,79.651
1.269,-0.069,0.389,62.256,98.267,71.655
1.223,-0.166,0.443,57.251,88.379,65.552
1.104,-0.243,0.511,47.974,77.332,59.204
0.999,-0.314,0.568,35.156,67.383,50.964
0.898,-0.355,0.628,20.813,58.899,42.114
0.798,-0.363,0.681,5.981,52.185,34.302
0.691,-0.334,0.731,-7.690,46.997,27.771
0.608,-0.303,0.772,-19.775,42.786,22.095
0.518,-0.264,0.820,-29.541,39.429,17.029
0.433,-0.239,0.864,-36.499,36.377,12.695
0.371,-0.202,0.916,-40.894,33.813,8.423
0.331,-0.178,0.964,-43.152,31.555,4.089
0.301,-0.153,1.011,-43.762,29.358,-0.977
0.296,-0.133,1.061,-43.701,27.100,-6.042
0.338,-0.089,1.092,-43.518,24.719,-11.902
0.373,-0.010,1.121,-43.396,20.081,-17.395
0.379,0.068,1.142,-43.152,13.123,-21.851
0.360,0.121,1.148,-42.236,5.615,-24.353
0.342,0.151,1.144,-41.382,-1.099,-25.818
0.337,0.170,1.123,-41.687,-6.714,-27.161
0.324,0.177,1.107,-42.908,-12.268,-28.015
0.327,0.178,1.083,-45.471,-16.724,-28.748
0.362,0.182,1.060,-48.706,-20.020,-29.724
0.401,0.203,1.048,-52.368,-23.621,-31.799
0.445,0.254,1.048,-55.664,-28.015,-34.668
0.460,0.300,1.053,-57.495,-33.264,-36.865
0.464,0.347,1.057,-57.800,-39.246,-37.964
0.454,0.365,1.044,-56.213,-45.715,-37.292
0.438,0.354,1.017,-53.528,-52.551,-35.522
0.408,0.330,1.000,-50.842,-59.204,-34.607
0.391,0.308,0.973,-49.133,-65.186,-35.950
0.382,0.292,0.940,-47.974,-70.190,-38.940
0.367,0.304,0.919,-47.058,-75.012,-42.603
0.372,0.342,0.900,-46.021,-79.346,-46.509
0.358,0.364,0.885,-44.617,-83.740,-49.438
0.352,0.384,0.878,-42.664,-87.585,-51.208
0.326,0.382,0.864,-40.405,-91.614,-52.429
0.300,0.349,0.838,-38.269,-96.436,-54.016
0.270,0.312,0.811,-37.170,-102.051,-56.274
0.236,0.270,0.770,-37.292,-108.337,-59.448
0.203,0.241,0.707,-39.185,-114.807,-63.110
0.163,0.231,0.655,-42.480,-121.155,-67.383
0.110,0.240,0.613,-46.875,-125.732,-72.205
0.076,0.281,0.590,-51.636,-128.174,-77.515
0.037,0.368,0.597,-55.115,-129.211,-82.703
0.016,0.478,0.615,-55.847,-129.211,-87.402
-0.001,0.578,0.637,-52.368,-129.517,-91.309
-0.023,0.646,0.627,-45.166,-131.592,-94.116
-0.077,0.684,0.623,-35.217,-135.620,-95.642
-0.146,0.653,0.612,-24.231,-140.137,-95.459
-0.198,0.583,0.579,-14.465,-142.944,-93.445
-0.216,0.507,0.544,-7.385,-144.348,-91.492
-0.217,0.442,0.519,-4.211,-145.996,-92.224
-0.210,0.371,0.491,-4.761,-148.071,-95.154
-0.205,0.320,0.460,-8.850,-151.733,-99.609
-0.241,0.338,0.474,-16.846,-156.738,-105.225
-0.324,0.383,0.490,-25.696,-161.072,-110.962
-0.371,0.423,0.480,-33.264,-162.842,-115.479
-0.397,0.477,0.473,-39.307,-163.208,-118.042
-0.418,0.522,0.467,-43.518,-163.025,-118.347
-0.418,0.544,0.451,-46.570,-162.354,-116.638
-0.379,0.518,0.419,-50.049,-162.231,-113.708
-0.335,0.478,0.369,-55.603,-164.551,-111.450
-0.330,0.439,0.308,-64.514,-170.898,-111.145
-0.356,0.431,0.252,-76.721,-180.237,-112.305
-0.433,0.479,0.206,-90.027,-190.369,-114.319
-0.537,0.555,0.186,-101.929,-198.425,-116.394
-0.621,0.655,0.174,-110.352,-202.271,-117.554
-0.665,0.776,0.169,-113.953,-201.660,-117.249
-0.657,0.846,0.146,-111.450,-198.120,-115.662
-0.640,0.903,0.134,-104.797,-195.190,-112.854
-0.604,0.938,0.104,-95.825,-193.909,-108.948
-0.588,0.936,0.058,-85.632,-194.641,-103.699
-0.609,0.925,0.004,-76.111,-197.632,-97.778

-1.401,1.135,0.094,76.538,92.834,3.174
-1.456,1.203,0.086,85.999,101.685,7.141
-1.507,1.254,0.062,94.543,111.633,12.146
-1.528,1.290,0.037,101.501,121.887,18.433
-1.551,1.339,0.021,106.140,131.592,25.757
-1.567,1.366,-0.012,109.497,140.625,33.630
-1.598,1.403,-0.034,112.549,148.437,41.687
-1.626,1.437,-0.043,115.479,156.250,48.828
-1.664,1.468,-0.062,118.835,165.649,55.603
-1.661,1.511,-0.093,122.375,176.575,62.927
-1.639,1.573,-0.108,126.404,187.500,70.374
-1.648,1.625,-0.115,131.775,197.205,79.041
-1.671,1.659,-0.127,137.390,206.726,88.501
-1.629,1.694,-0.156,143.066,216.492,98.816
-1.583,1.745,-0.176,149.780,223.999,110.168
-1.585,1.752,-0.190,157.715,228.027,120.911
-1.597,1.725,-0.205,165.466,230.591,131.104
-1.574,1.694,-0.234,172.241,232.849,141.174
-1.504,1.663,-0.240,176.636,234.253,151.123
-1.428,1.655,-0.237,179.443,234.863,161.682
-1.339,1.657,-0.238,181.396,235.657,171.570
-1.186,1.696,-0.264,182.983,236.511,180.298
-0.994,1.736,-0.295,185.364,233.643,190.735
-0.838,1.738,-0.310,189.209,226.501,203.857
-0.694,1.691,-0.318,193.848,217.346,216.675
-0.545,1.586,-0.319,198.608,209.351,226.624
-0.372,1.455,-0.322,201.843,202.454,233.643
-0.188,1.299,-0.316,203.125,196.350,237.366
0.014,1.136,-0.328,201.416,189.880,237.671
0.262,1.009,-0.318,195.923,181.702,234.436
0.529,0.898,-0.301,187.134,170.288,229.004
0.765,0.774,-0.298,174.988,154.053,223.389
0.932,0.642,-0.306,159.607,134.644,219.788
0.980,0.500,-0.285,140.564,115.356,218.140
0.997,0.391,-0.233,118.896,99.915,215.515
1.072,0.389,-0.173,96.436,90.942,208.801
1.145,0.421,-0.096,76.111,86.853,197.632
1.230,0.456,-0.026,61.157,85.938,186.523
1.276,0.454,0.030,52.368,85.632,178.467
1.366,0.444,0.095,49.561,84.351,173.401
1.493,0.411,0.145,52.124,80.933,168.701
1.551,0.338,0.187,58.289,75.256,162.292
1.544,0.224,0.229,65.796,69.153,155.273
1.504,0.082,0.267,72.876,63.599,148.193
1.428,-0.083,0.305,76.843,59.326,141.174
1.359,-0.246,0.349,76.477,55.786,133.118
1.277,-0.388,0.400,71.472,52.368,124.329
1.210,-0.510,0.446,62.256,48.523,114.014
1.143,-0.585,0.500,49.438,44.067,101.868
1.085,-0.616,0.555,34.973,39.246,89.294
1.037,-0.604,0.609,20.630,33.813,76.904
1.004,-0.571,0.680,7.080,28.625,65.125
0.961,-0.512,0.752,-3.906,24.353,54.443
0.926,-0.439,0.821,-12.512,20.691,44.861
0.874,-0.388,0.884,-19.043,17.090,36.560
0.814,-0.365,0.926,-23.193,13.428,29.785
0.745,-0.345,0.975,-25.391,10.254,22.278
0.693,-0.329,1.010,-26.550,8.484,12.939
0.676,-0.325,1.037,-26.978,8.057,2.441
0.692,-0.333,1.059,-27.649,7.080,-6.470
0.729,-0.315,1.086,-29.968,4.211,-14.648
0.754,-0.290,1.115,-34.058,-1.038,-22.339
0.765,-0.252,1.123,-39.001,-8.240,-28.870
0.752,-0.210,1.131,-43.762,-17.517,-35.583
0.711,-0.213,1.134,-48.950,-26.794,-42.542
0.698,-0.222,1.121,-55.725,-35.095,-49.194
0.683,-0.218,1.102,-65.125,-43.274,-54.810
0.643,-0.192,1.073,-77.393,-51.636,-59.326
0.619,-0.127,1.041,-90.210,-59.021,-63.599
0.609,-0.006,1.028,-101.807,-65.552,-69.031
0.593,0.099,1.015,-109.192,-71.960,-73.853
0.575,0.197,1.013,-112.000,-78.613,-77.026
0.540,0.269,1.005,-110.657,-85.449,-78.979
0.512,0.314,0.979,-106.201,-93.018,-80.933
0.473,0.348,0.950,-99.548,-101.196,-83.069
0.435,0.371,0.907,-91.309,-110.107,-85.510
0.385,0.378,0.866,-82.336,-119.019,-88.684
0.313,0.393,0.840,-74.219,-126.587,-92.163
0.280,0.409,0.805,-67.383,-131.531,-95.215
0.242,0.422,0.763,-62.256,-135.498,-96.802
0.166,0.433,0.740,-58.655,-139.160,-96.863
0.091,0.442,0.720,-56.396,-140.930,-96.497
0.046,0.457,0.692,-54.565,-140.686,-95.581
0.007,0.471,0.669,-52.490,-139.954,-94.849
-0.014,0.467,0.643,-50.232,-140.198,-94.971
-0.016,0.467,0.616,-47.913,-142.029,-95.886
-0.019,0.483,0.596,-45.654,-145.508,-97.107
-0.016,0.505,0.580,-43.518,-150.146,-98.389
-0.043,0.516,0.551,-41.748,-155.151,-99.548
-0.109,0.511,0.524,-40.466,-159.912,-99.487
-0.207,0.498,0.505,-40.161,-163.208,-98.877
-0.311,0.483,0.477,-40.710,-163.025,-98.022
-0.384,0.464,0.450,-41.260,-159.790,-97.168
-0.403,0.465,0.426,-41.443,-155.212,-97.534
-0.384,0.474,0.414,-41.321,-151.184,-99.304
-0.354,0.476,0.405,-41.565,-149.109,-100.830
-0.339,0.494,0.411,-42.175,-149.475,-101.563
-0.339,0.501,0.426,-43.030,-151.306,-102.112
-0.345,0.514,0.433,-44.678,-153.931,-103.394
-0.363,0.516,0.397,-46.692,-157.959,-104.248
-0.417,0.520,0.365,-49.561,-163.391,-103.088
-0.504,0.517,0.327,-52.673,-168.274,-100.342
-0.573,0.514,0.283,-55.481,-170.044,-98.083
-0.601,0.518,0.257,-58.411,-168.823,-97.900
-0.592,0.562,0.221,-61.768,-165.344,-99.792
-0.573,0.645,0.187,-64.087,-161.682,-101.563
-0.592,0.727,0.173,-63.049,-159.485,-102.478
-0.626,0.792,0.181,-59.509,-157.349,-103.088
-0.676,0.835,0.194,-54.016,-154.053,-102.905
-0.719,0.844,0.199,-47.302,-150.391,-100.952
-0.738,0.834,0.198,-40.649,-147.400,-96.924
-0.755,0.796,0.177,-34.485,-146.179,-92.529
-0.772,0.778,0.159,-30.212,-146.362,-89.294
-0.777,0.708,0.118,-27.161,-146.790,-87.952
-0.802,0.682,0.104,-27.893,-147.644,-88.135
-0.806,0.652,0.064,-31.921,-146.667,-88.989
-0.821,0.655,0.039,-38.574,-144.470,-89.478
-0.859,0.692,0.047,-46.814,-140.808,-88.501
-0.871,0.759,0.041,-53.589,-134.888,-86.731

-1.558,1.068,0.136,10.376,46.997,-7.385
-1.626,1.180,0.142,18.860,59.875,-3.723
-1.699,1.285,0.137,29.663,72.449,1.526
-1.760,1.380,0.109,41.260,84.290,8.484
-1.832,1.490,0.063,52.490,95.093,16.846
-1.936,1.579,0.021,63.416,105.774,25.879
-2.015,1.671,-0.022,73.486,118.408,35.828
-2.071,1.745,-0.063,82.947,133.484,47.180
-2.082,1.794,-0.089,92.041,150.574,60.181
-2.043,1.836,-0.107,101.013,167.908,73.975
-1.977,1.847,-0.125,109.558,184.875,87.585
-1.908,1.811,-0.156,117.249,200.684,101.929
-1.810,1.782,-0.195,123.474,215.393,116.394
-1.683,1.781,-0.235,129.028,228.577,129.639
-1.529,1.783,-0.270,135.071,239.624,142.212
-1.370,1.765,-0.292,142.334,247.559,155.640
-1.216,1.713,-0.341,150.452,252.502,170.593
-1.126,1.626,-0.378,157.776,254.211,184.814
-1.061,1.504,-0.406,162.842,253.784,196.289
-1.000,1.381,-0.440,164.307,253.723,205.688
-0.914,1.268,-0.474,162.048,253.601,213.074
-0.802,1.192,-0.482,157.288,253.174,219.360
-0.652,1.132,-0.476,151.123,252.380,224.548
-0.480,1.110,-0.460,145.264,250.732,228.882
-0.309,1.114,-0.424,141.174,247.253,232.910
-0.148,1.120,-0.397,139.832,241.211,237.183
-0.021,1.083,-0.382,141.724,232.117,242.310
0.048,1.021,-0.360,145.386,221.375,246.643
0.115,0.902,-0.375,148.804,211.365,249.146
0.182,0.762,-0.405,149.292,202.148,249.756
0.256,0.663,-0.394,145.813,193.542,248.169
0.333,0.596,-0.349,138.916,187.866,244.690
0.434,0.546,-0.290,130.676,186.096,238.464
0.568,0.500,-0.179,122.070,187.134,230.164
0.762,0.441,-0.085,114.685,188.110,221.680
0.968,0.330,-0.005,107.849,183.838,211.914
1.107,0.232,0.102,99.670,171.997,199.341
1.192,0.152,0.202,89.294,155.457,184.387
1.271,0.115,0.291,77.393,137.939,168.823
1.306,0.107,0.390,64.819,121.399,155.212
1.294,0.125,0.490,52.795,107.849,143.738
1.308,0.174,0.555,43.518,97.290,133.606
1.310,0.218,0.621,37.354,87.952,125.244
1.297,0.240,0.671,34.973,78.735,118.835
1.265,0.245,0.703,34.912,68.909,112.671
1.225,0.222,0.738,36.072,58.350,106.934
1.172,0.167,0.753,37.842,47.729,101.196
1.106,0.105,0.772,38.452,37.659,94.727
1.020,0.071,0.815,37.598,29.053,87.036
0.973,0.041,0.844,35.828,22.888,79.163
0.933,0.015,0.870,33.813,17.639,72.388
0.878,-0.020,0.897,31.189,12.085,66.833
0.852,-0.066,0.896,27.466,6.958,62.317
0.813,-0.123,0.896,22.278,1.465,57.495
0.770,-0.168,0.911,15.381,-3.540,52.185
0.736,-0.191,0.917,7.812,-7.812,46.997
0.707,-0.185,0.931,0.366,-11.780,41.199
0.689,-0.160,0.935,-5.127,-15.259,34.912
0.669,-0.134,0.940,-9.216,-18.311,29.236
0.636,-0.116,0.936,-11.475,-20.569,23.926
0.608,-0.119,0.930,-12.573,-22.034,18.860
0.582,-0.135,0.932,-12.939,-22.705,13.672
0.568,-0.157,0.937,-13.245,-22.827,8.179
0.567,-0.169,0.946,-13.672,-22.766,2.075
0.572,-0.178,0.960,-14.587,-22.827,-3.784
0.587,-0.176,0.975,-15.625,-23.926,-9.644
0.583,-0.172,0.984,-16.846,-25.818,-16.296
0.575,-0.157,0.997,-18.188,-28.198,-23.376
0.564,-0.147,1.000,-19.653,-30.640,-30.701
0.556,-0.145,0.994,-21.545,-32.776,-37.048
0.540,-0.151,0.983,-24.109,-35.339,-42.908
0.540,-0.159,0.960,-27.649,-37.964,-49.316
0.545,-0.151,0.937,-32.532,-41.321,-56.396
0.540,-0.132,0.921,-38.696,-45.532,-63.599
0.536,-0.093,0.906,-45.349,-50.415,-70.984
0.516,-0.049,0.895,-52.246,-55.237,-77.148
0.502,-0.003,0.876,-59.082,-59.692,-81.848
0.484,0.045,0.861,-65.125,-64.331,-85.449
0.463,0.095,0.848,-69.763,-69.458,-88.806
0.442,0.138,0.843,-72.937,-74.951,-92.773
0.411,0.167,0.829,-74.890,-80.750,-96.985
0.378,0.187,0.806,-75.806,-86.853,-100.830
0.314,0.224,0.802,-76.233,-93.018,-104.736
0.241,0.254,0.806,-75.806,-97.839,-109.131
0.204,0.303,0.814,-74.341,-100.952,-112.793
0.187,0.375,0.828,-71.045,-104.004,-114.502
0.172,0.407,0.823,-65.735,-108.215,-113.831
0.160,0.396,0.793,-59.448,-114.563,-111.206
0.128,0.365,0.754,-54.138,-122.742,-109.070
0.072,0.316,0.715,-51.208,-131.104,-109.558
0.028,0.260,0.663,-51.758,-138.306,-112.244
-0.015,0.208,0.607,-56.213,-144.043,-115.906
-0.073,0.184,0.564,-64.087,-148.071,-118.958
-0.151,0.213,0.551,-74.158,-150.208,-120.789
-0.191,0.280,0.545,-83.618,-149.963,-121.948
-0.227,0.390,0.553,-90.759,-148.132,-122.070
-0.231,0.490,0.547,-92.590,-147.156,-120.239
-0.240,0.580,0.550,-89.478,-148.193,-116.211
-0.250,0.624,0.536,-81.726,-151.306,-110.596
-0.273,0.638,0.503,-71.716,-155.273,-105.164
-0.328,0.614,0.487,-61.340,-159.790,-101.440
-0.367,0.568,0.448,-53.040,-162.537,-98.938
-0.396,0.510,0.395,-47.974,-163.757,-97.961
-0.448,0.496,0.360,-46.570,-163.635,-97.656
-0.515,0.506,0.346,-47.424,-162.048,-97.778
-0.558,0.516,0.347,-49.194,-158.203,-97.534
-0.552,0.532,0.344,-50.964,-152.832,-96.436
-0.532,0.544,0.360,-52.429,-148.193,-94.116
-0.487,0.552,0.365,-53.162,-145.569,-90.637
-0.449,0.542,0.348,-53.223,-146.545,-86.304
-0.476,0.505,0.335,-53.284,-150.940,-83.801
-0.508,0.454,0.295,-55.298,-156.189,-84.595
-0.533,0.411,0.221,-60.059,-161.316,-87.708
-0.595,0.401,0.166,-68.176,-166.260,-91.553
-0.672,0.433,0.146,-77.759,-169.128,-95.032
-0.747,0.510,0.146,-87.036,-167.847,-97.656
-0.763,0.584,0.154,-94.055,-162.109,-99.487
-0.738,0.669,0.170,-98.022,-154.358,-99.854
-0.684,0.737,0.183,-98.999,-147.522,-97.290

-1.505,1.266,-0.173,23.499,42.847,-19.897
-1.589,1.398,-0.199,27.710,53.955,-18.799
-1.657,1.538,-0.225,34.241,67.139,-16.296
-1.715,1.677,-0.236,44.495,81.482,-11.658
-1.746,1.775,-0.262,58.411,97.595,-4.639
-1.742,1.817,-0.290,75.012,114.441,5.005
-1.707,1.828,-0.324,91.980,130.737,17.090
-1.658,1.809,-0.372,107.971,146.118,28.503
-1.617,1.759,-0.414,121.399,160.278,39.429
-1.558,1.698,-0.465,131.714,173.645,50.476
-1.478,1.639,-0.523,139.160,185.303,62.622
-1.439,1.575,-0.557,143.250,195.251,75.745
-1.421,1.516,-0.565,144.653,205.505,88.684
-1.353,1.471,-0.585,143.982,218.384,100.220
-1.265,1.437,-0.597,142.578,232.178,109.680
-1.162,1.401,-0.592,141.785,245.178,117.126
-1.036,1.384,-0.577,142.517,257.141,122.681
-0.875,1.365,-0.549,145.020,267.517,127.747
-0.722,1.337,-0.522,149.536,273.682,133.972
-0.632,1.306,-0.462,155.701,274.292,141.602
-0.592,1.260,-0.390,162.720,271.301,149.109
-0.545,1.202,-0.336,170.654,266.907,156.860
-0.508,1.137,-0.283,178.162,262.024,163.086
-0.471,1.062,-0.241,183.533,257.141,167.542
-0.426,0.997,-0.202,185.669,252.808,170.959
-0.351,0.962,-0.162,184.631,248.413,173.462
-0.236,0.983,-0.127,181.335,242.859,175.293
-0.130,1.020,-0.096,177.795,234.070,177.429
-0.066,1.068,-0.072,175.903,221.924,180.115
-0.025,1.111,-0.032,176.025,208.557,182.861
0.016,1.107,-0.000,177.734,196.045,186.218
0.067,1.049,0.015,179.443,184.875,190.002
0.143,0.987,0.040,178.955,173.645,194.641
0.227,0.912,0.062,176.025,162.292,200.623
0.317,0.811,0.094,170.105,151.184,205.994
0.423,0.726,0.109,161.682,139.832,209.534
0.517,0.635,0.120,151.917,128.235,210.754
0.574,0.568,0.151,141.357,117.676,209.900
0.641,0.502,0.179,131.470,107.727,206.665
0.720,0.467,0.214,122.986,98.816,202.087
0.828,0.428,0.230,115.845,90.515,196.838
0.895,0.369,0.276,109.497,82.703,191.711
0.961,0.302,0.330,103.027,77.026,186.646
1.032,0.228,0.370,96.069,72.937,181.885
1.084,0.153,0.418,89.050,68.542,176.086
1.121,0.095,0.449,82.336,63.049,169.067
1.137,-0.002,0.465,76.904,55.969,161.011
1.138,-0.094,0.493,70.923,48.462,151.306
1.130,-0.175,0.537,63.782,41.382,139.221
1.129,-0.239,0.578,55.115,36.011,125.977
1.125,-0.288,0.618,45.471,32.104,112.732
1.114,-0.327,0.658,35.706,28.870,100.342
1.086,-0.354,0.688,25.269,24.780,89.172
1.036,-0.365,0.720,14.893,20.203,78.125
0.969,-0.357,0.760,5.249,15.686,67.444
0.910,-0.357,0.788,-2.625,12.512,57.434
0.862,-0.348,0.824,-8.179,10.071,47.791
0.824,-0.337,0.865,-12.817,7.568,37.231
0.794,-0.335,0.891,-15.930,4.700,26.123
0.769,-0.322,0.919,-17.700,1.282,15.137
0.722,-0.307,0.937,-18.860,-2.441,4.333
0.670,-0.294,0.949,-20.264,-6.042,-5.798
0.617,-0.260,0.974,-22.034,-9.216,-15.869
0.584,-0.218,0.996,-24.109,-11.414,-25.330
0.576,-0.177,1.015,-25.818,-13.489,-32.959
0.562,-0.147,1.041,-27.283,-17.029,-39.612
0.542,-0.123,1.058,-28.503,-22.278,-45.959
0.520,-0.108,1.064,-29.907,-28.931,-52.490
0.489,-0.095,1.067,-31.372,-36.438,-58.899
0.453,-0.068,1.067,-33.142,-43.457,-65.796
0.423,-0.039,1.059,-35.278,-49.011,-72.571
0.401,-0.003,1.045,-37.964,-53.284,-78.430
0.391,0.034,1.031,-40.161,-57.007,-83.435
0.373,0.068,1.010,-42.786,-61.096,-88.318
0.359,0.099,0.978,-45.532,-65.613,-92.712
0.327,0.120,0.937,-48.157,-71.228,-96.130
0.288,0.120,0.899,-50.720,-76.538,-99.060
0.263,0.135,0.851,-53.528,-80.872,-102.600
0.234,0.175,0.819,-56.396,-84.473,-106.384
0.199,0.215,0.801,-58.167,-86.609,-110.413
0.170,0.257,0.784,-58.777,-87.280,-113.770
0.148,0.288,0.768,-57.922,-87.646,-115.784
0.125,0.321,0.764,-55.908,-88.867,-116.089
0.110,0.337,0.754,-53.162,-91.431,-115.845
0.090,0.328,0.733,-49.622,-95.398,-115.723
0.069,0.316,0.714,-46.936,-100.708,-116.699
0.047,0.310,0.697,-45.410,-106.995,-119.568
0.032,0.299,0.675,-45.227,-113.647,-123.352
0.028,0.279,0.630,-46.631,-120.239,-127.197
0.011,0.263,0.578,-50.598,-127.625,-130.676
-0.051,0.279,0.546,-56.763,-134.827,-133.484
-0.156,0.296,0.521,-64.941,-138.550,-134.277
-0.214,0.321,0.492,-73.486,-137.085,-132.324
-0.241,0.361,0.488,-81.177,-132.690,-128.967
-0.233,0.403,0.497,-87.219,-128.113,-125.488
-0.201,0.459,0.508,-90.759,-125.610,-123.291
-0.173,0.488,0.499,-90.881,-126.831,-122.437
-0.211,0.505,0.471,-88.684,-132.629,-122.498
-0.283,0.519,0.447,-85.938,-140.503,-123.779
-0.349,0.531,0.422,-83.313,-146.851,-125.671
-0.395,0.552,0.379,-81.360,-150.879,-127.014
-0.509,0.580,0.390,-80.322,-152.649,-127.563
-0.584,0.619,0.414,-79.834,-149.414,-125.977
-0.578,0.664,0.414,-78.857,-141.968,-122.864
-0.541,0.719,0.430,-77.087,-134.460,-118.530
-0.488,0.766,0.435,-73.669,-130.127,-113.892
-0.462,0.774,0.422,-68.542,-129.883,-110.046
-0.482,0.747,0.404,-63.293,-133.118,-106.934
-0.513,0.706,0.377,-59.937,-137.512,-104.675
-0.559,0.660,0.329,-59.509,-141.907,-102.844
-0.613,0.631,0.280,-62.195,-145.630,-100.830
-0.686,0.643,0.259,-66.895,-148.376,-99.060
-0.745,0.673,0.251,-72.205,-147.766,-98.206
-0.775,0.718,0.245,-76.172,-143.738,-97.168
-0.783,0.765,0.246,-77.942,-137.939,-94.910
-0.763,0.802,0.237,-77.148,-131.042,-91.431
-0.729,0.854,0.222,-73.914,-125.366,-88.013
-0.701,0.906,0.209,-67.810,-121.399,-85.693
-0.675,0.919,0.188,-59.509,-119.507,-83.069

-1.365,1.178,0.039,75.134,74.646,24.292
-1.406,1.193,0.034,82.642,82.764,28.503
-1.448,1.198,0.024,89.783,90.698,32.715
-1.485,1.212,0.011,95.825,98.877,37.659
-1.505,1.207,-0.006,100.769,108.154,43.518
-1.513,1.213,-0.027,103.638,117.249,49.805
-1.522,1.235,-0.050,104.614,125.671,56.335
-1.554,1.261,-0.067,104.736,133.789,62.439
-1.583,1.309,-0.082,104.797,142.395,68.359
-1.597,1.361,-0.101,105.286,152.344,74.097
-1.580,1.399,-0.124,106.873,163.818,80.444
-1.533,1.433,-0.152,109.131,176.392,87.769
-1.497,1.449,-0.182,112.366,189.148,95.764
-1.473,1.456,-0.222,116.394,200.928,105.225
-1.482,1.478,-0.268,121.338,211.548,115.784
-1.504,1.506,-0.288,128.113,221.436,125.488
-1.448,1.541,-0.265,136.230,231.750,133.972
-1.316,1.563,-0.223,145.508,242.615,141.663
-1.127,1.546,-0.198,154.724,252.441,149.292
-0.943,1.472,-0.212,162.598,259.644,156.677
-0.807,1.368,-0.225,167.542,262.207,163.086
-0.701,1.269,-0.231,168.945,261.475,169.434
-0.573,1.196,-0.237,166.748,259.521,174.927
-0.423,1.151,-0.257,162.048,255.737,179.932
-0.299,1.139,-0.259,156.006,249.146,185.181
-0.217,1.118,-0.232,150.391,241.394,189.514
-0.136,1.114,-0.214,146.362,234.070,192.017
-0.045,1.113,-0.207,145.203,228.210,193.665
0.062,1.087,-0.215,146.790,222.961,196.045
0.186,1.035,-0.215,150.085,216.003,199.341
0.301,0.950,-0.220,153.503,206.787,202.515
0.396,0.822,-0.235,154.724,195.068,204.651
0.481,0.718,-0.252,152.710,180.908,205.322
0.535,0.643,-0.252,146.606,165.710,204.529
0.567,0.559,-0.231,136.963,151.184,201.355
0.605,0.503,-0.207,123.718,139.526,197.815
0.638,0.473,-0.142,108.521,130.188,194.946
0.693,0.459,-0.042,92.834,123.291,192.261
0.797,0.445,0.086,78.247,118.286,188.843
0.902,0.459,0.211,65.735,112.793,184.448
0.990,0.453,0.340,56.824,105.713,179.749
1.052,0.434,0.451,52.063,96.924,175.598
1.126,0.394,0.536,50.415,86.426,172.241
1.187,0.329,0.620,51.086,73.730,169.495
1.213,0.228,0.695,52.612,59.387,165.955
1.203,0.106,0.752,52.917,44.434,161.072
1.164,-0.022,0.809,50.842,30.884,154.602
1.126,-0.141,0.842,45.471,19.653,147.034
1.081,-0.237,0.871,37.292,10.620,138.489
1.036,-0.301,0.908,26.978,3.296,128.113
1.018,-0.335,0.955,16.296,-2.563,116.272
1.000,-0.340,0.992,6.348,-7.996,103.699
0.970,-0.340,1.020,-1.343,-14.160,91.858
0.917,-0.344,1.043,-6.836,-20.996,80.566
0.859,-0.346,1.048,-11.169,-27.222,68.909
0.803,-0.336,1.052,-14.404,-32.410,56.580
0.749,-0.311,1.053,-16.602,-36.133,44.617
0.691,-0.283,1.047,-17.273,-38.513,33.142
0.637,-0.250,1.042,-16.663,-39.612,22.034
0.587,-0.213,1.039,-15.076,-39.429,10.925
0.562,-0.184,1.036,-12.634,-37.964,0.488
0.542,-0.166,1.030,-10.010,-36.438,-7.874
0.529,-0.161,1.021,-8.179,-35.095,-15.869
0.512,-0.165,1.013,-7.141,-34.729,-23.804
0.500,-0.180,0.999,-7.629,-35.522,-31.616
0.487,-0.182,0.984,-10.071,-37.048,-39.063
0.463,-0.166,0.973,-14.099,-39.551,-46.753
0.452,-0.137,0.956,-19.226,-41.870,-54.810
0.434,-0.086,0.940,-24.597,-44.006,-62.256
0.404,-0.032,0.923,-29.419,-45.776,-68.787
0.369,0.017,0.902,-33.142,-46.570,-73.975
0.336,0.074,0.893,-35.583,-46.082,-78.125
0.315,0.134,0.893,-36.072,-44.800,-81.177
0.308,0.167,0.873,-34.119,-43.823,-83.191
0.295,0.177,0.860,-30.029,-44.067,-85.327
0.273,0.178,0.853,-24.780,-45.654,-89.417
0.256,0.180,0.845,-19.348,-47.119,-94.543
0.250,0.190,0.840,-14.343,-47.974,-98.755
0.234,0.199,0.842,-10.010,-48.767,-102.051
0.216,0.213,0.849,-7.080,-49.561,-104.614
0.212,0.213,0.845,-5.127,-50.293,-105.286
0.189,0.193,0.837,-5.005,-51.880,-104.431
0.158,0.179,0.827,-6.348,-54.199,-104.004
0.135,0.158,0.807,-9.277,-56.641,-105.347
0.130,0.146,0.788,-13.428,-59.204,-108.093
0.120,0.161,0.776,-18.921,-62.317,-111.267
0.110,0.194,0.763,-24.841,-65.247,-113.525
0.098,0.228,0.749,-30.334,-68.604,-114.746
0.068,0.254,0.737,-35.156,-72.571,-115.295
0.025,0.276,0.719,-39.307,-76.294,-115.112
-0.027,0.299,0.708,-42.786,-79.834,-114.685
-0.061,0.317,0.686,-45.471,-82.336,-114.258
-0.099,0.326,0.672,-46.997,-84.167,-113.953
-0.123,0.340,0.663,-48.157,-85.083,-113.281
-0.119,0.360,0.652,-48.767,-85.266,-112.915
-0.113,0.377,0.644,-48.645,-86.731,-112.732
-0.104,0.398,0.641,-48.157,-89.478,-112.366
-0.133,0.428,0.641,-47.729,-93.384,-112.061
-0.166,0.428,0.624,-47.424,-97.168,-110.901
-0.207,0.434,0.615,-47.485,-100.464,-108.826
-0.256,0.423,0.609,-48.340,-103.882,-106.445
-0.275,0.410,0.594,-50.110,-106.506,-104.980
-0.289,0.409,0.589,-52.856,-109.009,-104.614
-0.296,0.417,0.588,-55.969,-111.694,-104.431
-0.295,0.443,0.578,-58.960,-115.173,-104.126
-0.312,0.476,0.567,-61.707,-119.568,-103.638
-0.343,0.524,0.558,-63.293,-124.146,-103.149
-0.370,0.563,0.543,-63.721,-127.625,-102.234
-0.405,0.582,0.529,-62.622,-130.066,-99.792
-0.438,0.584,0.512,-60.913,-131.226,-95.642
-0.458,0.562,0.491,-59.082,-131.775,-91.003
-0.476,0.524,0.463,-57.495,-132.507,-87.463
-0.483,0.504,0.429,-56.763,-134.277,-86.060
-0.507,0.508,0.412,-56.458,-137.817,-86.731
-0.529,0.527,0.395,-56.213,-141.174,-88.684
-0.554,0.559,0.378,-56.274,-143.494,-90.454
-0.607,0.578,0.362,-56.641,-144.653,-90.515
-0.654,0.571,0.345,-57.129,-143.677,-87.891
-0.672,0.556,0.318,-58.533,-140.564,-83.130

-1.319,1.214,0.073,90.881,102.600,17.395
-1.327,1.253,0.072,92.041,111.084,22.827
-1.342,1.306,0.072,93.262,119.385,28.748
-1.343,1.359,0.061,95.154,127.136,35.461
-1.337,1.419,0.050,98.511,133.850,43.152
-1.331,1.459,0.022,103.516,139.221,51.941
-1.306,1.492,-0.004,108.887,142.944,61.157
-1.302,1.515,-0.011,114.319,145.874,71.045
-1.293,1.537,-0.023,118.652,149.963,82.153
-1.285,1.558,-0.023,122.131,155.396,93.994
-1.253,1.568,-0.039,125.732,162.476,106.445
-1.204,1.560,-0.043,129.333,169.373,117.798
-1.163,1.545,-0.057,132.568,175.049,127.991
-1.106,1.520,-0.082,135.681,178.894,137.268
-1.050,1.511,-0.109,138.184,179.504,145.386
-0.966,1.517,-0.135,140.076,177.734,153.687
-0.884,1.510,-0.156,141.846,174.500,162.964
-0.823,1.469,-0.175,142.883,171.936,173.218
-0.752,1.412,-0.190,142.761,172.424,184.814
-0.683,1.358,-0.212,141.541,176.086,196.533
-0.586,1.303,-0.233,140.503,182.068,206.360
-0.463,1.260,-0.249,141.052,188.171,213.501
-0.336,1.217,-0.250,144.592,192.810,218.323
-0.203,1.166,-0.245,150.757,195.618,220.825
-0.044,1.135,-0.229,158.752,197.205,222.900
0.118,1.062,-0.229,166.687,196.960,226.135
0.237,0.962,-0.210,172.913,193.298,231.018
0.326,0.845,-0.184,175.476,187.195,236.267
0.392,0.709,-0.158,174.500,180.298,239.624
0.458,0.583,-0.118,169.983,172.852,240.601
0.497,0.458,-0.072,162.109,165.955,239.502
0.525,0.354,-0.034,150.269,161.011,236.694
0.582,0.309,0.027,136.475,157.471,232.056
0.653,0.312,0.106,122.925,154.724,225.769
0.739,0.342,0.185,112.122,151.550,217.834
0.834,0.376,0.266,105.103,146.179,209.229
0.933,0.387,0.318,102.356,138.062,202.026
0.989,0.356,0.361,101.990,126.343,197.021
1.000,0.294,0.424,101.807,114.197,192.566
1.020,0.210,0.488,99.976,104.492,186.890
1.072,0.118,0.537,95.764,97.473,180.054
1.128,0.026,0.598,89.478,91.064,172.607
1.169,-0.076,0.646,81.787,83.618,164.795
1.205,-0.172,0.680,71.838,74.646,156.250
1.232,-0.248,0.719,60.303,64.331,146.790
1.236,-0.290,0.755,48.157,52.551,135.925
1.222,-0.308,0.792,37.048,40.466,123.901
1.207,-0.329,0.825,27.832,28.503,111.023
1.189,-0.350,0.848,20.691,17.395,98.572
1.161,-0.379,0.854,14.832,6.897,87.036
1.121,-0.414,0.859,9.583,-2.869,75.684
1.061,-0.458,0.861,4.272,-11.230,64.392
1.005,-0.490,0.862,-1.831,-17.883,52.612
0.959,-0.497,0.860,-8.057,-23.254,40.649
0.912,-0.487,0.860,-14.343,-27.588,28.931
0.869,-0.470,0.864,-19.714,-31.738,17.578
0.832,-0.445,0.870,-23.865,-36.316,6.714
0.797,-0.416,0.880,-27.222,-41.016,-3.357
0.763,-0.383,0.897,-30.396,-45.471,-12.756
0.730,-0.347,0.911,-33.081,-49.683,-21.973
0.691,-0.317,0.917,-35.767,-53.528,-30.457
0.646,-0.297,0.919,-38.391,-57.190,-38.391
0.607,-0.284,0.923,-41.992,-60.120,-46.448
0.583,-0.257,0.915,-46.387,-62.195,-54.382
0.557,-0.226,0.905,-51.453,-64.392,-62.256
0.521,-0.198,0.895,-56.641,-67.078,-69.885
0.485,-0.161,0.879,-61.646,-69.641,-76.843
0.450,-0.116,0.863,-66.162,-71.594,-83.374
0.424,-0.066,0.844,-69.702,-73.303,-89.661
0.405,-0.026,0.823,-72.144,-75.195,-95.032
0.392,0.016,0.802,-73.425,-78.064,-99.976
0.388,0.063,0.785,-73.914,-81.604,-105.164
0.382,0.120,0.781,-73.608,-85.999,-110.413
0.360,0.167,0.779,-72.876,-90.820,-115.173
0.345,0.192,0.756,-71.777,-96.191,-119.019
0.324,0.203,0.716,-71.350,-102.844,-122.009
0.247,0.220,0.693,-72.510,-109.436,-125.183
0.177,0.222,0.675,-75.012,-114.136,-128.296
0.118,0.225,0.648,-78.674,-115.723,-129.333
0.095,0.263,0.628,-82.642,-115.051,-128.906
0.096,0.320,0.617,-85.938,-113.953,-128.235
0.098,0.376,0.610,-87.769,-114.319,-128.479
0.097,0.428,0.609,-87.891,-117.004,-128.845
0.114,0.466,0.583,-86.670,-122.192,-129.211
0.089,0.479,0.529,-84.778,-129.456,-129.028
-0.012,0.480,0.504,-83.618,-137.268,-129.089
-0.112,0.490,0.487,-83.618,-141.418,-129.700
-0.201,0.512,0.472,-84.534,-140.930,-129.761
-0.279,0.548,0.493,-85.266,-136.475,-128.906
-0.297,0.592,0.511,-84.595,-129.089,-126.587
-0.259,0.632,0.521,-82.153,-122.192,-123.352
-0.227,0.672,0.523,-78.125,-119.507,-120.178
-0.222,0.685,0.511,-73.975,-121.765,-117.249
-0.245,0.689,0.467,-69.946,-127.319,-114.014
-0.303,0.658,0.397,-66.833,-133.789,-111.206
-0.409,0.646,0.358,-65.552,-138.794,-109.924
-0.505,0.636,0.323,-66.528,-138.794,-110.107
-0.572,0.667,0.318,-68.115,-133.911,-110.718
-0.611,0.716,0.343,-68.542,-126.282,-110.962
-0.586,0.762,0.363,-66.772,-117.188,-110.474
-0.540,0.811,0.387,-62.439,-109.863,-108.704
-0.513,0.844,0.417,-56.396,-106.689,-106.384
-0.506,0.841,0.428,-49.744,-106.812,-103.821
-0.528,0.810,0.417,-43.884,-109.253,-100.037
-0.562,0.753,0.395,-39.795,-113.098,-95.459
-0.598,0.700,0.358,-38.818,-116.760,-91.736
-0.637,0.651,0.314,-40.955,-119.629,-90.393
-0.676,0.639,0.286,-45.715,-121.338,-91.003
-0.712,0.646,0.268,-51.208,-121.216,-92.285
-0.726,0.681,0.261,-56.641,-119.019,-93.628
-0.736,0.741,0.281,-60.486,-115.601,-93.811
-0.715,0.827,0.274,-61.340,-111.267,-91.980
-0.698,0.903,0.276,-57.983,-107.544,-88.562
-0.707,0.956,0.286,-50.110,-105.103,-83.862
-0.721,0.955,0.283,-40.100,-102.783,-77.393
-0.733,0.940,0.278,-30.090,-100.952,-70.435
-0.750,0.920,0.279,-20.996,-100.037,-65.063
-0.771,0.893,0.289,-13.733,-99.182,-61.707
-0.783,0.867,0.292,-8.301,-98.083,-59.021

-1.160,1.393,0.090,63.232,63.354,26.917
-1.163,1.398,0.105,75.073,71.045,35.583
-1.143,1.374,0.118,86.548,78.552,45.837
-1.132,1.334,0.132,96.619,84.656,56.763
-1.124,1.275,0.143,104.797,89.539,67.383
-1.143,1.224,0.163,110.474,93.140,76.233
-1.142,1.178,0.174,113.892,96.375,83.374
-1.145,1.145,0.193,115.540,99.487,88.928
-1.139,1.126,0.196,115.540,102.539,94.055
-1.129,1.139,0.198,114.197,105.103,98.938
-1.143,1.166,0.208,112.549,107.910,104.126
-1.153,1.191,0.201,111.755,111.694,110.046
-1.137,1.219,0.186,111.572,116.150,115.723
-1.107,1.254,0.175,112.732,120.239,121.887
-1.079,1.266,0.150,115.479,123.169,128.784
-1.059,1.262,0.117,118.530,124.512,136.475
-1.063,1.255,0.086,121.582,124.512,144.531
-1.089,1.237,0.057,123.718,125.610,151.245
-1.094,1.238,0.037,125.061,129.395,156.921
-1.077,1.262,0.010,125.549,136.292,162.048
-1.042,1.290,-0.013,126.099,144.165,167.236
-0.986,1.321,-0.040,127.563,151.428,173.645
-0.911,1.339,-0.075,130.066,157.288,181.763
-0.826,1.340,-0.109,133.606,160.828,191.101
-0.780,1.323,-0.136,137.939,161.865,200.378
-0.735,1.284,-0.147,141.907,163.269,208.374
-0.691,1.238,-0.153,144.775,166.809,215.454
-0.629,1.237,-0.157,146.179,172.974,223.450
-0.492,1.250,-0.172,146.729,180.664,231.689
-0.328,1.251,-0.161,147.644,186.462,239.380
-0.164,1.241,-0.121,149.841,187.805,246.643
0.015,1.181,-0.085,153.442,184.814,252.747
0.146,1.085,-0.057,157.288,177.307,257.019
0.220,0.955,-0.021,160.156,167.053,258.545
0.307,0.823,0.007,159.729,157.349,257.080
0.403,0.701,0.045,155.579,149.170,254.333
0.510,0.591,0.081,148.193,142.517,252.136
0.615,0.497,0.131,138.977,136.597,250.488
0.718,0.417,0.194,128.723,130.493,247.437
0.807,0.339,0.264,118.469,123.657,241.577
0.876,0.251,0.353,108.948,116.455,232.117
0.949,0.166,0.433,99.976,109.497,221.436
1.038,0.098,0.507,91.736,102.539,211.609
1.127,0.050,0.572,83.862,94.788,202.637
1.178,0.014,0.647,76.843,84.595,194.519
1.230,-0.040,0.700,70.740,73.181,187.439
1.246,-0.126,0.744,65.674,60.913,180.298
1.240,-0.225,0.788,60.303,49.194,171.814
1.245,-0.326,0.815,53.833,39.307,161.682
1.241,-0.407,0.839,46.448,30.823,149.963
1.229,-0.462,0.857,38.208,22.583,137.878
1.217,-0.491,0.861,29.907,14.648,126.221
1.191,-0.516,0.849,21.667,6.592,116.089
1.128,-0.567,0.849,13.916,-1.709,105.957
1.071,-0.601,0.852,6.165,-8.667,95.398
1.014,-0.633,0.850,-0.916,-14.465,84.412
0.965,-0.677,0.845,-6.958,-19.287,72.876
0.891,-0.708,0.843,-13.062,-23.560,60.547
0.828,-0.711,0.837,-19.104,-26.489,46.692
0.775,-0.682,0.829,-24.231,-27.893,32.959
0.732,-0.640,0.830,-28.076,-29.114,20.081
0.698,-0.603,0.831,-31.250,-30.579,8.301
0.658,-0.572,0.836,-33.936,-32.288,-2.563
0.625,-0.535,0.841,-37.231,-34.302,-12.146
0.586,-0.499,0.861,-41.077,-36.682,-20.691
0.533,-0.455,0.869,-45.654,-38.818,-27.649
0.494,-0.417,0.865,-50.720,-39.612,-34.302
0.464,-0.374,0.865,-55.847,-40.222,-41.687
0.449,-0.317,0.872,-61.279,-40.771,-50.354
0.442,-0.263,0.876,-66.162,-41.748,-58.899
0.440,-0.192,0.878,-70.557,-43.213,-66.162
0.417,-0.125,0.884,-73.730,-45.776,-72.021
0.397,-0.068,0.887,-75.439,-49.133,-77.026
0.363,-0.023,0.884,-75.745,-52.979,-82.031
0.328,0.015,0.884,-75.134,-57.129,-86.914
0.285,0.031,0.876,-74.097,-61.279,-90.881
0.249,0.047,0.866,-72.815,-64.941,-93.689
0.219,0.066,0.860,-71.350,-68.176,-96.130
0.186,0.089,0.857,-69.885,-70.862,-99.304
0.158,0.109,0.852,-68.359,-72.693,-102.600
0.138,0.132,0.839,-66.650,-74.036,-105.896
0.117,0.147,0.829,-65.308,-75.378,-109.009
0.099,0.171,0.828,-64.697,-77.209,-111.877
0.081,0.192,0.814,-64.514,-79.468,-114.014
0.058,0.214,0.805,-64.697,-82.825,-115.173
0.013,0.222,0.807,-64.697,-86.731,-115.295
-0.013,0.222,0.795,-64.575,-90.271,-114.685
-0.044,0.229,0.788,-64.941,-93.811,-114.014
-0.073,0.240,0.773,-65.491,-97.351,-114.319
-0.103,0.247,0.751,-66.406,-100.220,-116.089
-0.118,0.251,0.719,-68.359,-102.722,-118.774
-0.134,0.264,0.684,-71.533,-105.164,-121.399
-0.169,0.300,0.660,-75.745,-108.154,-123.169
-0.215,0.345,0.648,-79.956,-110.352,-123.779
-0.243,0.399,0.635,-83.191,-111.389,-123.047
-0.274,0.469,0.633,-84.045,-111.877,-120.850
-0.287,0.499,0.625,-82.336,-111.877,-118.530
-0.311,0.523,0.621,-79.041,-112.244,-116.211
-0.325,0.528,0.610,-74.768,-113.403,-114.441
-0.339,0.541,0.602,-69.946,-115.051,-113.464
-0.344,0.566,0.576,-65.430,-117.432,-113.647
-0.392,0.589,0.570,-61.096,-120.667,-114.075
-0.447,0.609,0.566,-57.190,-123.291,-113.770
-0.489,0.608,0.554,-53.528,-124.573,-112.366
-0.533,0.600,0.562,-50.598,-124.512,-109.680
-0.540,0.592,0.554,-48.401,-123.169,-106.384
-0.523,0.575,0.537,-47.363,-121.582,-103.943
-0.501,0.559,0.513,-47.607,-121.521,-102.844
-0.498,0.551,0.490,-49.133,-123.596,-102.844
-0.507,0.561,0.472,-52.246,-126.587,-103.821
-0.525,0.588,0.452,-55.725,-129.395,-104.248
-0.544,0.634,0.441,-58.594,-131.653,-103.882
-0.565,0.679,0.438,-60.486,-133.057,-102.783
-0.581,0.719,0.423,-60.791,-133.301,-99.243
-0.597,0.750,0.412,-59.814,-133.545,-94.727
-0.617,0.749,0.389,-57.800,-133.301,-90.210
-0.626,0.742,0.361,-55.237,-132.874,-86.121
-0.625,0.716,0.324,-52.734,-133.057,-83.984
-0.619,0.706,0.295,-51.147,-133.972,-83.313

-1.090,1.457,0.144,39.551,68.115,-24.414
-1.123,1.481,0.131,50.354,73.425,-16.724
-1.141,1.492,0.121,61.768,80.078,-7.019
-1.137,1.503,0.113,73.608,87.769,3.418
-1.107,1.501,0.101,85.510,95.520,14.404
-1.073,1.489,0.087,96.741,101.807,25.330
-1.083,1.471,0.084,108.093,106.445,35.583
-1.082,1.445,0.082,118.164,111.145,45.166
-1.069,1.415,0.067,126.648,116.150,54.016
-1.056,1.388,0.052,133.484,120.667,63.049
-1.045,1.376,0.046,138.000,125.000,71.716
-1.016,1.379,0.020,140.442,129.944,81.055
-0.984,1.393,-0.011,141.663,134.277,91.370
-0.955,1.426,-0.041,142.639,135.986,101.990
-0.956,1.445,-0.073,143.127,135.559,111.755
-0.990,1.459,-0.107,142.944,134.827,120.605
-1.011,1.460,-0.136,141.602,134.460,129.028
-1.006,1.479,-0.188,138.550,135.132,138.306
-1.017,1.524,-0.243,134.766,135.803,148.499
-1.071,1.578,-0.272,131.714,137.451,158.691
-1.087,1.642,-0.299,130.188,142.517,169.067
-1.001,1.717,-0.317,131.348,150.330,180.054
-0.851,1.800,-0.333,135.620,156.921,192.871
-0.686,1.846,-0.334,143.127,158.875,205.750
-0.548,1.820,-0.333,152.405,156.738,218.018
-0.437,1.737,-0.327,161.194,152.649,230.347
-0.320,1.633,-0.303,167.358,148.376,241.638
-0.199,1.509,-0.287,169.678,144.409,251.831
-0.090,1.380,-0.262,167.847,140.320,261.841
0.020,1.262,-0.223,161.316,135.864,270.752
0.123,1.147,-0.189,151.489,131.348,278.015
0.209,1.045,-0.154,139.282,127.258,283.813
0.325,0.968,-0.115,125.488,123.901,288.452
0.457,0.897,-0.084,112.427,120.300,291.199
0.583,0.817,-0.041,100.220,114.258,292.725
0.666,0.699,0.010,89.966,106.812,293.030
0.732,0.562,0.066,79.956,100.281,292.603
0.759,0.424,0.121,70.007,95.764,290.344
0.782,0.284,0.168,59.875,93.628,286.133
0.802,0.166,0.217,50.232,92.834,279.236
0.837,0.057,0.266,40.833,92.712,269.043
0.870,-0.030,0.335,31.372,92.468,256.226
0.909,-0.088,0.437,22.217,92.041,242.371
0.980,-0.130,0.533,14.282,91.125,227.295
1.040,-0.160,0.640,8.301,87.891,211.487
1.081,-0.186,0.740,4.028,81.665,195.251
1.097,-0.206,0.834,1.404,73.059,178.040
1.073,-0.229,0.922,-0.488,63.538,161.072
1.030,-0.250,0.995,-1.953,54.871,145.874
0.977,-0.275,1.063,-3.113,47.546,132.385
0.935,-0.291,1.126,-4.211,41.687,119.202
0.906,-0.301,1.173,-5.005,36.499,105.835
0.894,-0.321,1.205,-5.798,30.518,91.553
0.858,-0.336,1.238,-7.202,22.461,77.209
0.794,-0.345,1.259,-8.972,13.062,63.049
0.736,-0.366,1.266,-11.719,3.784,48.340
0.695,-0.368,1.261,-15.808,-4.395,34.058
0.645,-0.352,1.235,-20.752,-12.695,20.996
0.577,-0.314,1.216,-26.123,-21.118,8.057
0.500,-0.267,1.198,-30.640,-27.649,-3.967
0.423,-0.209,1.173,-34.302,-31.677,-15.259
0.355,-0.153,1.147,-36.377,-33.203,-25.330
0.307,-0.095,1.142,-36.560,-33.508,-33.936
0.285,-0.042,1.137,-35.522,-33.203,-41.138
0.279,-0.004,1.120,-33.020,-33.875,-47.424
0.259,0.040,1.107,-30.090,-36.316,-53.040
0.240,0.076,1.085,-26.978,-39.307,-58.533
0.227,0.110,1.053,-23.315,-42.542,-64.148
0.222,0.134,1.022,-19.775,-45.959,-70.129
0.217,0.156,0.999,-16.785,-49.438,-75.745
0.192,0.167,0.975,-15.076,-52.368,-80.811
0.141,0.161,0.958,-15.442,-53.955,-84.717
0.090,0.168,0.945,-17.151,-53.589,-87.036
0.072,0.190,0.939,-19.104,-51.514,-88.318
0.094,0.209,0.923,-19.836,-49.988,-89.111
0.123,0.215,0.912,-19.165,-51.025,-90.454
0.140,0.202,0.890,-17.395,-55.237,-92.957
0.121,0.199,0.886,-15.503,-62.073,-96.313
0.086,0.201,0.885,-14.160,-68.726,-100.769
0.047,0.208,0.875,-13.367,-74.036,-105.347
0.007,0.212,0.860,-13.733,-78.369,-108.704
-0.030,0.215,0.842,-15.076,-81.787,-111.023
-0.068,0.228,0.827,-17.456,-84.900,-113.403
-0.095,0.241,0.809,-20.264,-87.952,-115.784
-0.100,0.255,0.778,-22.827,-91.003,-117.859
-0.105,0.280,0.742,-25.085,-94.849,-119.873
-0.111,0.307,0.705,-26.672,-99.731,-121.826
-0.126,0.330,0.664,-27.649,-105.286,-124.084
-0.151,0.349,0.630,-28.564,-110.657,-125.671
-0.189,0.373,0.604,-29.846,-115.356,-126.831
-0.239,0.393,0.572,-31.250,-119.080,-127.441
-0.291,0.425,0.556,-32.349,-121.765,-127.502
-0.338,0.462,0.545,-32.654,-123.169,-127.380
-0.375,0.494,0.532,-32.104,-123.047,-127.197
-0.402,0.523,0.525,-29.785,-121.948,-126.404
-0.409,0.536,0.515,-25.757,-120.605,-124.817
-0.407,0.535,0.502,-21.423,-119.080,-123.352
-0.415,0.513,0.477,-17.639,-118.774,-122.070
-0.424,0.481,0.436,-16.052,-119.995,-120.483
-0.459,0.456,0.394,-17.151,-122.253,-118.652
-0.522,0.441,0.364,-21.240,-124.695,-117.310
-0.596,0.443,0.351,-27.405,-125.244,-116.333
-0.654,0.467,0.353,-34.241,-122.681,-115.173
-0.697,0.504,0.373,-40.100,-117.798,-112.915
-0.691,0.541,0.376,-43.030,-111.633,-109.375
-0.654,0.581,0.374,-42.908,-106.628,-105.774
-0.640,0.618,0.364,-39.795,-104.858,-103.394
-0.656,0.627,0.345,-34.729,-104.980,-102.234
-0.686,0.623,0.316,-28.564,-105.896,-101.074
-0.735,0.610,0.287,-22.949,-106.812,-100.159
-0.771,0.589,0.265,-18.860,-106.140,-99.609
-0.792,0.568,0.248,-16.846,-104.431,-98.999
-0.793,0.557,0.238,-16.846,-102.112,-97.961
-0.796,0.544,0.238,-18.799,-99.731,-96.985
-0.790,0.542,0.240,-22.217,-97.534,-96.008
-0.776,0.541,0.248,-26.428,-95.215,-94.666
-0.755,0.548,0.243,-31.067,-93.384,-93.445
-0.734,0.563,0.231,-35.339,-92.773,-93.140
-0.715,0.574,0.215,-39.124,-93.567,-93.750

-1.403,1.249,-0.057,6.836,49.744,-17.883
-1.427,1.386,-0.101,16.235,57.861,-14.343
-1.457,1.524,-0.133,26.489,66.162,-7.751
-1.477,1.616,-0.166,38.025,75.806,1.282
-1.488,1.672,-0.201,50.415,86.609,12.451
-1.489,1.694,-0.228,62.195,98.267,23.926
-1.483,1.695,-0.237,72.510,109.558,34.912
-1.476,1.679,-0.249,81.726,120.667,46.082
-1.474,1.664,-0.264,89.111,131.592,57.861
-1.466,1.655,-0.270,95.093,142.578,70.190
-1.453,1.667,-0.256,100.464,153.992,82.703
-1.406,1.683,-0.240,106.628,166.748,95.276
-1.314,1.706,-0.227,113.770,180.115,108.093
-1.203,1.720,-0.221,122.131,192.322,121.887
-1.085,1.700,-0.214,131.592,201.782,135.742
-0.996,1.683,-0.209,141.541,208.618,148.926
-0.922,1.661,-0.215,152.222,213.196,161.133
-0.854,1.606,-0.229,163.391,216.553,172.791
-0.805,1.541,-0.245,173.828,219.299,183.716
-0.740,1.466,-0.269,182.922,223.083,194.031
-0.667,1.377,-0.297,189.270,227.844,203.308
-0.599,1.289,-0.294,192.078,232.971,210.571
-0.520,1.220,-0.287,192.139,238.708,215.881
-0.436,1.158,-0.270,191.528,243.896,218.689
-0.332,1.079,-0.240,191.101,247.559,217.957
-0.222,0.980,-0.232,191.589,248.718,214.966
-0.118,0.874,-0.206,192.078,246.155,210.754
-0.049,0.775,-0.165,190.918,239.929,207.336
0.026,0.689,-0.097,188.354,230.408,205.750
0.108,0.643,-0.016,183.472,218.689,205.505
0.192,0.572,0.042,177.002,205.017,207.397
0.265,0.473,0.084,168.518,187.805,208.923
0.258,0.337,0.109,156.372,168.274,207.458
0.194,0.224,0.157,139.282,149.414,202.148
0.105,0.139,0.198,118.042,135.742,193.542
0.085,0.116,0.221,94.238,129.211,184.631
0.110,0.152,0.250,70.251,127.319,177.002
0.196,0.245,0.296,49.133,126.892,170.654
0.321,0.367,0.347,33.569,125.732,165.527
0.446,0.469,0.408,26.123,120.300,163.147
0.513,0.500,0.472,26.428,109.497,162.415
0.537,0.477,0.503,31.189,95.947,161.621
0.559,0.403,0.513,36.865,83.008,158.752
0.560,0.339,0.524,40.039,71.289,153.870
0.547,0.258,0.531,39.734,61.829,147.705
0.546,0.211,0.538,35.828,56.091,141.357
0.557,0.160,0.562,28.564,53.406,135.864
0.572,0.128,0.593,19.592,52.307,132.141
0.629,0.098,0.625,10.315,51.453,129.517
0.695,0.070,0.645,2.075,48.218,126.831
0.716,0.028,0.668,-4.150,40.955,123.657
0.709,0.018,0.721,-9.094,31.921,119.202
0.698,0.016,0.781,-12.573,24.109,113.647
0.720,0.026,0.823,-13.611,18.738,108.032
0.730,0.030,0.866,-11.230,13.977,101.807
0.742,0.018,0.906,-6.653,9.705,95.093
0.759,-0.024,0.921,-1.526,5.798,88.196
0.755,-0.087,0.926,2.747,1.953,82.520
0.737,-0.164,0.935,4.089,-2.075,76.721
0.721,-0.242,0.943,1.709,-5.188,70.007
0.713,-0.281,0.953,-3.357,-7.874,61.890
0.696,-0.292,0.978,-9.460,-11.292,53.223
0.670,-0.284,1.004,-15.442,-15.137,44.189
0.642,-0.273,1.017,-20.020,-18.799,34.851
0.601,-0.263,1.029,-23.315,-22.095,25.757
0.561,-0.254,1.045,-25.024,-24.536,17.151
0.530,-0.239,1.047,-26.062,-25.940,8.301
0.504,-0.210,1.052,-26.367,-26.855,-0.488
0.484,-0.182,1.060,-26.001,-27.283,-7.996
0.479,-0.148,1.068,-25.330,-27.405,-15.442
0.488,-0.110,1.087,-24.536,-28.259,-22.827
0.499,-0.080,1.093,-23.743,-30.029,-29.358
0.493,-0.062,1.097,-22.949,-33.936,-35.156
0.470,-0.065,1.087,-22.522,-39.673,-41.016
0.432,-0.084,1.061,-22.949,-46.143,-47.668
0.393,-0.094,1.036,-24.841,-52.368,-55.237
0.364,-0.100,1.004,-28.198,-58.167,-62.866
0.328,-0.087,0.975,-31.860,-63.293,-69.641
0.298,-0.064,0.954,-36.194,-67.993,-75.745
0.301,-0.021,0.936,-40.283,-71.777,-82.214
0.302,0.039,0.921,-43.274,-75.500,-88.013
0.308,0.105,0.919,-45.166,-80.322,-93.140
0.306,0.153,0.909,-45.715,-86.060,-96.558
0.283,0.165,0.892,-45.044,-92.957,-98.145
0.258,0.166,0.872,-44.983,-100.464,-99.915
0.238,0.166,0.845,-46.143,-108.582,-102.966
0.219,0.176,0.805,-48.096,-117.249,-106.445
0.186,0.198,0.762,-50.842,-126.221,-110.840
0.102,0.222,0.732,-54.382,-133.911,-115.601
0.030,0.255,0.711,-58.960,-138.184,-119.690
-0.007,0.306,0.686,-63.660,-138.123,-121.643
-0.025,0.367,0.665,-67.688,-136.108,-121.033
-0.043,0.409,0.647,-70.068,-134.033,-118.408
-0.050,0.442,0.613,-71.289,-133.179,-114.990
-0.071,0.469,0.593,-71.533,-134.766,-113.281
-0.085,0.521,0.562,-70.984,-138.184,-112.183
-0.094,0.583,0.518,-68.176,-143.799,-111.694
-0.137,0.650,0.490,-62.439,-151.123,-111.938
-0.210,0.693,0.484,-55.054,-158.508,-112.488
-0.265,0.730,0.471,-46.692,-163.330,-111.755
-0.335,0.731,0.449,-38.147,-165.466,-109.619
-0.412,0.711,0.438,-30.579,-164.612,-106.506
-0.461,0.668,0.419,-24.963,-160.278,-102.966
-0.482,0.620,0.393,-22.095,-153.625,-100.098
-0.480,0.570,0.356,-22.522,-146.606,-97.900
-0.470,0.529,0.312,-25.574,-141.174,-96.436
-0.476,0.518,0.279,-30.701,-138.489,-95.825
-0.493,0.544,0.262,-36.499,-137.878,-96.191
-0.522,0.586,0.259,-41.870,-138.123,-96.497
-0.555,0.635,0.271,-45.288,-138.062,-95.764
-0.562,0.686,0.281,-45.654,-137.451,-94.421
-0.581,0.713,0.290,-43.518,-136.841,-93.140
-0.584,0.714,0.293,-39.490,-136.292,-92.468
-0.601,0.682,0.298,-35.217,-135.681,-92.529
-0.614,0.637,0.274,-32.837,-134.888,-92.896
-0.621,0.606,0.245,-33.203,-134.033,-93.750
-0.647,0.605,0.219,-36.133,-134.216,-94.116
-0.698,0.623,0.214,-40.222,-134.399,-93.994
-0.723,0.643,0.201,-44.006,-133.606,-93.140

-1.327,1.242,-0.001,65.674,62.561,16.235
-1.369,1.252,0.001,71.777,69.702,25.146
-1.417,1.279,0.006,77.026,77.576,33.264
-1.446,1.307,0.005,81.787,86.060,40.588
-1.467,1.318,0.013,86.853,94.788,47.058
-1.466,1.328,0.008,91.980,103.577,53.894
-1.464,1.340,-0.010,96.802,111.450,61.523
-1.471,1.361,-0.028,101.318,117.981,69.336
-1.470,1.414,-0.044,105.591,123.962,77.820
-1.473,1.461,-0.052,110.291,129.639,87.585
-1.459,1.508,-0.076,115.845,136.353,98.145
-1.449,1.523,-0.090,121.460,143.494,108.154
-1.457,1.521,-0.110,126.404,151.672,117.371
-1.443,1.505,-0.152,130.188,161.865,126.465
-1.418,1.512,-0.185,132.568,172.974,136.230
-1.342,1.561,-0.208,134.155,183.167,146.057
-1.207,1.645,-0.222,135.986,191.406,156.921
-1.073,1.716,-0.247,139.099,196.411,171.448
-0.989,1.766,-0.277,143.005,199.463,189.331
-0.901,1.773,-0.346,146.667,203.491,207.397
-0.830,1.736,-0.401,149.475,208.496,222.168
-0.756,1.707,-0.421,151.184,213.379,232.300
-0.666,1.707,-0.417,152.588,216.492,238.953
-0.586,1.700,-0.403,156.189,217.957,246.155
-0.484,1.668,-0.362,162.598,217.407,252.625
-0.373,1.605,-0.312,170.898,215.271,255.554
-0.221,1.533,-0.289,179.199,212.524,256.042
-0.041,1.403,-0.244,187.012,208.435,258.179
0.141,1.261,-0.191,191.467,201.233,261.536
0.317,1.103,-0.135,190.796,191.772,265.564
0.477,0.968,-0.083,184.448,179.565,268.677
0.585,0.833,-0.022,173.035,164.673,269.775
0.646,0.734,0.018,158.386,149.048,268.860
0.696,0.650,0.044,142.578,135.071,266.418
0.734,0.557,0.070,126.709,124.756,262.756
0.793,0.475,0.105,111.267,117.371,257.324
0.870,0.436,0.160,96.375,112.427,250.427
0.978,0.393,0.205,84.106,108.582,243.469
1.068,0.341,0.267,75.256,103.699,235.718
1.143,0.267,0.336,69.702,96.680,226.196
1.169,0.160,0.383,66.589,88.745,216.614
1.165,0.037,0.417,64.026,80.994,207.092
1.135,-0.086,0.451,60.974,74.280,197.021
1.117,-0.209,0.472,56.030,68.787,186.279
1.104,-0.310,0.501,48.828,64.331,176.025
1.089,-0.399,0.539,39.734,59.875,166.260
1.066,-0.491,0.568,30.212,54.504,156.250
1.024,-0.556,0.615,19.714,47.852,144.287
0.984,-0.591,0.669,9.033,41.260,130.249
0.947,-0.570,0.719,-1.038,35.339,115.967
0.914,-0.502,0.755,-8.423,29.663,102.173
0.854,-0.434,0.799,-12.146,23.499,89.355
0.796,-0.394,0.828,-12.207,17.944,77.332
0.744,-0.396,0.860,-10.132,13.306,66.650
0.695,-0.426,0.901,-7.690,9.888,57.251
0.684,-0.483,0.932,-6.897,7.507,48.279
0.662,-0.518,0.975,-8.484,5.005,38.635
0.657,-0.519,1.002,-12.146,2.625,28.259
0.652,-0.495,1.026,-16.479,-0.183,17.883
0.631,-0.463,1.043,-20.813,-3.784,8.423
0.596,-0.434,1.068,-24.963,-8.057,-0.610
0.570,-0.411,1.091,-29.053,-12.329,-9.033
0.552,-0.398,1.107,-32.837,-16.663,-17.456
0.535,-0.397,1.122,-37.048,-21.545,-25.574
0.518,-0.385,1.130,-41.992,-27.161,-33.813
0.487,-0.345,1.135,-48.035,-33.020,-41.626
0.461,-0.285,1.128,-54.504,-36.987,-47.913
0.456,-0.209,1.123,-59.937,-39.124,-53.528
0.468,-0.106,1.129,-63.171,-40.894,-59.570
0.465,-0.004,1.144,-62.988,-43.640,-65.796
0.474,0.063,1.148,-59.082,-47.668,-70.740
0.467,0.080,1.133,-52.673,-52.979,-73.792
0.448,0.068,1.110,-45.898,-59.937,-77.087
0.412,0.036,1.086,-40.039,-67.932,-82.458
0.387,0.007,1.046,-36.438,-75.806,-89.294
0.353,-0.013,1.005,-35.278,-83.069,-95.703
0.309,-0.012,0.975,-37.048,-88.684,-99.609
0.269,0.004,0.945,-41.321,-91.370,-101.074
0.256,0.033,0.917,-47.058,-92.102,-102.112
0.252,0.085,0.891,-52.917,-93.140,-104.065
0.253,0.149,0.874,-57.678,-95.276,-106.323
0.236,0.200,0.849,-60.303,-99.670,-108.521
0.227,0.253,0.824,-61.157,-106.384,-110.535
0.216,0.292,0.775,-59.387,-114.868,-112.061
0.188,0.333,0.729,-55.603,-125.366,-114.807
0.125,0.366,0.698,-50.598,-136.108,-119.263
0.032,0.384,0.693,-45.166,-143.616,-122.375
-0.074,0.370,0.692,-40.955,-145.691,-122.437
-0.139,0.341,0.681,-39.612,-141.724,-119.324
-0.158,0.324,0.664,-41.321,-134.949,-115.051
-0.131,0.310,0.625,-45.776,-129.700,-110.840
-0.116,0.314,0.590,-51.453,-129.395,-107.788
-0.117,0.332,0.562,-57.495,-133.423,-106.750
-0.148,0.355,0.529,-62.622,-140.198,-106.567
-0.181,0.394,0.481,-65.918,-147.888,-107.239
-0.220,0.437,0.452,-66.833,-154.846,-109.619
-0.279,0.496,0.446,-66.162,-160.522,-112.366
-0.343,0.542,0.439,-63.049,-163.086,-115.051
-0.423,0.578,0.434,-58.777,-162.476,-116.333
-0.497,0.584,0.430,-53.833,-157.410,-114.685
-0.527,0.593,0.411,-49.561,-148.682,-109.314
-0.521,0.585,0.367,-45.349,-139.893,-102.234
-0.501,0.572,0.342,-41.687,-133.484,-96.069
-0.483,0.556,0.322,-38.879,-131.348,-92.041
-0.475,0.547,0.303,-36.743,-132.019,-89.905
-0.496,0.556,0.291,-34.607,-134.705,-89.172
-0.534,0.588,0.296,-32.471,-137.939,-90.576
-0.576,0.586,0.290,-29.297,-139.465,-92.834
-0.620,0.589,0.285,-25.879,-139.038,-94.238
-0.653,0.536,0.272,-23.193,-136.658,-94.604
-0.691,0.495,0.245,-23.437,-133.362,-94.177
-0.696,0.460,0.216,-26.672,-130.127,-94.055
-0.695,0.488,0.221,-32.043,-127.441,-93.567
-0.672,0.518,0.214,-37.415,-125.854,-92.163
-0.661,0.572,0.212,-41.626,-125.549,-91.003
-0.660,0.618,0.207,-43.457,-126.709,-90.820
-0.685,0.659,0.208,-42.847,-128.418,-90.698
-0.711,0.666,0.198,-39.978,-129.272,-90.393
-0.719,0.659,0.167,-36.438,-129.211,-90.088

-1.268,1.328,0.011,80.872,95.825,27.405
-1.299,1.368,0.019,89.172,103.394,33.752
-1.329,1.390,0.009,97.595,111.450,42.358
-1.362,1.368,-0.010,105.530,119.812,51.880
-1.373,1.351,-0.029,111.816,128.540,61.279
-1.363,1.356,-0.042,116.333,137.573,69.641
-1.339,1.392,-0.059,119.995,145.874,78.308
-1.321,1.413,-0.067,123.962,152.710,88.379
-1.294,1.441,-0.071,128.601,158.203,99.731
-1.273,1.453,-0.074,133.728,162.720,111.084
-1.243,1.465,-0.075,138.855,166.809,121.460
-1.209,1.473,-0.099,143.555,170.959,132.019
-1.143,1.485,-0.128,147.827,174.866,143.555
-1.080,1.486,-0.158,151.428,178.650,155.518
-1.018,1.484,-0.191,154.236,182.861,168.518
-0.964,1.465,-0.205,157.349,187.744,182.190
-0.876,1.461,-0.222,160.889,192.566,195.251
-0.780,1.433,-0.223,165.771,197.327,207.275
-0.704,1.370,-0.214,171.204,201.904,219.116
-0.609,1.298,-0.211,174.988,207.458,231.995
-0.505,1.230,-0.206,175.964,214.417,245.117
-0.364,1.129,-0.198,173.950,221.680,257.202
-0.196,1.089,-0.189,169.067,226.746,266.541
-0.060,1.065,-0.160,163.574,226.929,270.142
0.066,1.014,-0.115,158.997,221.802,268.616
0.150,0.945,-0.058,155.334,212.097,266.052
0.225,0.865,0.002,151.917,200.134,263.733
0.284,0.753,0.055,147.461,187.195,261.658
0.352,0.642,0.104,140.930,174.377,259.827
0.443,0.547,0.147,133.240,160.400,255.005
0.482,0.472,0.204,125.000,144.958,247.681
0.497,0.379,0.249,115.295,131.958,243.774
0.556,0.276,0.282,103.516,122.742,243.103
0.620,0.184,0.323,88.989,114.563,240.967
0.671,0.127,0.371,72.876,104.675,234.009
0.709,0.107,0.420,57.373,93.079,224.121
0.711,0.081,0.491,44.312,81.604,213.806
0.740,0.064,0.540,33.447,72.693,205.261
0.787,0.039,0.587,25.085,64.880,197.510
0.818,0.015,0.634,18.372,56.396,188.843
0.839,-0.003,0.683,13.428,47.119,178.711
0.844,-0.031,0.721,9.827,37.903,168.640
0.835,-0.052,0.761,6.897,29.419,158.997
0.820,-0.052,0.802,4.761,22.034,149.536
0.809,-0.043,0.827,4.028,16.174,140.137
0.782,-0.031,0.858,4.639,11.230,132.080
0.773,-0.039,0.892,7.019,7.141,124.268
0.773,-0.074,0.915,9.705,3.235,116.638
0.762,-0.131,0.935,11.719,-1.038,108.215
0.735,-0.195,0.950,11.841,-5.737,99.060
0.701,-0.258,0.959,9.705,-11.108,89.661
0.654,-0.306,0.972,5.493,-16.541,80.017
0.602,-0.341,0.977,-0.183,-22.095,70.129
0.565,-0.362,0.974,-6.653,-27.405,60.486
0.520,-0.373,0.974,-14.221,-32.471,51.392
0.478,-0.364,0.975,-22.034,-36.865,42.969
0.437,-0.338,0.972,-29.236,-40.039,34.912
0.387,-0.300,0.976,-34.973,-42.969,27.405
0.336,-0.248,0.981,-38.574,-44.861,20.447
0.292,-0.206,0.988,-39.368,-45.288,13.794
0.255,-0.173,0.997,-37.964,-44.556,7.080
0.245,-0.146,1.000,-34.546,-42.603,0.061
0.245,-0.124,1.007,-30.151,-40.833,-6.775
0.239,-0.110,1.021,-25.452,-39.673,-14.160
0.238,-0.097,1.026,-20.935,-39.307,-21.179
0.228,-0.089,1.042,-16.479,-39.673,-27.344
0.213,-0.095,1.047,-12.207,-40.161,-32.715
0.200,-0.112,1.042,-9.094,-40.527,-37.781
0.182,-0.139,1.037,-7.507,-40.466,-42.908
0.184,-0.156,1.016,-7.812,-39.917,-47.913
0.197,-0.163,0.995,-10.132,-40.161,-53.772
0.210,-0.151,0.976,-14.160,-41.748,-59.631
0.214,-0.119,0.966,-19.226,-44.250,-65.430
0.199,-0.079,0.958,-25.024,-47.241,-70.129
0.175,-0.034,0.955,-30.273,-50.293,-73.608
0.151,0.005,0.958,-34.180,-52.673,-76.538
0.139,0.041,0.958,-36.560,-54.993,-80.322
0.145,0.077,0.954,-36.560,-58.350,-84.839
0.130,0.098,0.944,-34.729,-63.599,-90.271
0.113,0.088,0.920,-32.471,-69.641,-95.581
0.078,0.073,0.885,-31.372,-75.623,-98.816
0.043,0.055,0.855,-32.349,-80.383,-100.708
0.016,0.057,0.836,-36.133,-83.557,-102.478
-0.011,0.083,0.829,-41.504,-85.266,-104.248
-0.018,0.112,0.820,-46.570,-86.243,-105.713
-0.021,0.159,0.824,-51.025,-87.891,-107.056
-0.020,0.203,0.824,-53.955,-91.003,-108.276
-0.007,0.238,0.797,-54.321,-96.008,-109.375
-0.021,0.249,0.753,-53.284,-103.210,-111.267
-0.057,0.251,0.710,-51.941,-112.244,-114.319
-0.105,0.256,0.663,-50.903,-120.300,-117.737
-0.163,0.277,0.634,-50.842,-125.732,-120.422
-0.234,0.299,0.617,-51.392,-128.174,-121.765
-0.315,0.348,0.633,-52.429,-126.770,-120.361
-0.341,0.414,0.645,-52.368,-121.521,-117.004
-0.326,0.471,0.649,-50.415,-115.417,-113.220
-0.286,0.502,0.633,-46.387,-112.183,-109.802
-0.260,0.495,0.599,-41.626,-114.014,-106.384
-0.273,0.473,0.565,-37.048,-120.178,-103.210
-0.310,0.465,0.522,-33.752,-127.441,-101.868
-0.336,0.454,0.472,-31.860,-133.972,-102.478
-0.364,0.494,0.423,-30.212,-140.198,-104.370
-0.445,0.529,0.415,-27.893,-145.630,-107.727
-0.542,0.577,0.431,-24.414,-147.339,-110.901
-0.612,0.573,0.434,-20.386,-143.921,-112.549
-0.618,0.564,0.415,-17.700,-136.414,-110.229
-0.602,0.570,0.393,-16.968,-128.723,-104.248
-0.561,0.580,0.382,-17.517,-123.291,-96.863
-0.523,0.591,0.362,-18.372,-121.887,-91.003
-0.512,0.585,0.342,-18.860,-124.268,-87.708
-0.525,0.549,0.311,-19.958,-128.601,-86.365
-0.568,0.532,0.288,-22.461,-133.606,-86.670
-0.621,0.521,0.265,-26.306,-138.123,-88.379
-0.680,0.534,0.251,-30.823,-140.869,-90.454
-0.755,0.550,0.256,-35.339,-141.235,-91.858
-0.807,0.556,0.250,-39.490,-138.000,-92.407
-0.823,0.577,0.239,-42.908,-132.141,-91.614
-0.812,0.613,0.234,-45.593,-125.793,-89.478
-0.775,0.644,0.231,-46.570,-120.911,-86.548

-1.407,1.259,-0.097,32.043,59.875,-4.150
-1.420,1.352,-0.084,42.603,71.228,3.662
-1.414,1.425,-0.058,56.702,82.092,15.930
-1.413,1.447,-0.057,73.975,91.309,30.090
-1.424,1.395,-0.068,92.285,98.083,44.067
-1.443,1.325,-0.070,108.154,102.600,55.359
-1.467,1.247,-0.060,119.019,106.689,63.721
-1.472,1.206,-0.052,124.268,112.183,70.313
-1.461,1.194,-0.044,124.878,119.263,75.806
-1.432,1.206,-0.040,122.681,127.747,80.872
-1.389,1.227,-0.043,119.202,137.207,87.036
-1.334,1.263,-0.043,115.234,147.461,95.215
-1.239,1.316,-0.059,112.244,157.715,105.103
-1.129,1.344,-0.084,112.000,165.588,116.699
-1.075,1.340,-0.096,114.685,169.434,128.662
-1.052,1.298,-0.096,119.324,171.021,139.221
-1.052,1.234,-0.092,123.840,172.546,146.912
-1.000,1.229,-0.096,127.441,175.720,151.855
-0.924,1.297,-0.077,130.493,180.298,155.029
-0.814,1.391,-0.072,134.766,186.584,158.997
-0.677,1.453,-0.088,141.602,193.176,167.419
-0.554,1.459,-0.084,151.306,197.021,180.115
-0.484,1.350,-0.089,162.292,197.266,194.275
-0.444,1.191,-0.080,170.471,194.763,205.994
-0.403,1.011,-0.061,174.133,190.735,212.891
-0.327,0.875,-0.033,172.424,186.096,215.210
-0.241,0.798,0.002,166.504,180.847,215.271
-0.161,0.745,0.021,158.875,175.049,216.736
-0.108,0.696,0.043,151.306,168.640,219.604
-0.098,0.618,0.070,144.348,162.598,222.107
-0.110,0.502,0.081,137.146,159.241,223.022
-0.065,0.385,0.094,129.028,157.654,222.778
-0.047,0.279,0.138,119.446,156.799,221.130
0.003,0.228,0.178,108.032,156.067,217.285
0.089,0.194,0.208,96.558,153.870,212.830
0.122,0.178,0.266,86.243,148.621,207.886
0.154,0.147,0.305,77.820,141.968,202.454
0.173,0.119,0.346,70.007,135.132,197.021
0.181,0.104,0.385,62.256,129.211,194.092
0.206,0.100,0.421,54.932,124.634,192.932
0.248,0.071,0.448,48.401,120.789,191.162
0.276,0.011,0.494,41.992,116.333,186.890
0.317,-0.034,0.530,35.278,112.305,179.871
0.377,-0.059,0.570,27.588,108.826,171.509
0.456,-0.056,0.617,19.714,105.835,163.696
0.517,-0.076,0.655,12.146,102.661,157.104
0.578,-0.103,0.697,4.761,98.511,150.269
0.649,-0.118,0.737,-2.197,93.018,142.761
0.717,-0.104,0.769,-7.996,85.754,135.559
0.728,-0.094,0.800,-12.024,76.538,128.479
0.707,-0.053,0.831,-13.550,67.627,120.361
0.684,0.039,0.860,-11.841,61.584,110.840
0.681,0.123,0.891,-5.981,58.838,101.563
0.730,0.175,0.916,4.089,58.533,94.666
0.778,0.166,0.935,17.151,57.434,88.745
0.820,0.097,0.948,29.907,53.955,83.008
0.847,-0.031,0.952,39.124,48.096,77.820
0.845,-0.180,0.947,41.443,40.405,73.486
0.837,-0.300,0.947,35.889,31.738,69.031
0.826,-0.369,0.948,23.804,22.766,63.660
0.813,-0.397,0.956,8.240,13.184,57.129
0.784,-0.394,0.959,-7.874,3.296,50.293
0.747,-0.357,0.963,-23.437,-5.554,43.640
0.710,-0.299,0.962,-37.415,-13.794,36.804
0.664,-0.230,0.963,-48.279,-20.996,30.029
0.623,-0.153,0.968,-55.359,-26.184,23.193
0.607,-0.077,0.973,-57.861,-30.090,16.357
0.600,-0.021,0.977,-55.969,-33.325,10.742
0.585,0.009,0.978,-50.781,-36.743,6.287
0.584,0.018,0.987,-44.128,-40.039,1.465
0.580,0.010,0.991,-37.842,-43.701,-3.784
0.568,-0.004,0.987,-33.142,-47.546,-8.911
0.550,-0.037,0.977,-31.372,-52.063,-14.099
0.528,-0.062,0.964,-32.898,-56.519,-18.372
0.510,-0.075,0.951,-37.659,-60.669,-22.766
0.489,-0.074,0.934,-44.373,-64.636,-27.466
0.468,-0.062,0.924,-51.758,-68.420,-32.776
0.442,-0.025,0.912,-58.777,-71.960,-38.269
0.444,0.031,0.904,-64.697,-75.256,-43.823
0.422,0.082,0.901,-68.481,-78.979,-49.377
0.408,0.128,0.894,-69.763,-82.825,-54.810
0.403,0.177,0.899,-68.542,-87.280,-60.120
0.385,0.196,0.896,-65.002,-92.957,-65.063
0.353,0.199,0.875,-60.547,-99.731,-69.336
0.307,0.188,0.856,-56.824,-107.422,-73.792
0.223,0.158,0.842,-54.260,-114.197,-78.430
0.161,0.131,0.813,-54.138,-118.469,-83.130
0.113,0.130,0.802,-55.847,-119.873,-87.280
0.086,0.126,0.790,-58.533,-120.117,-90.820
0.085,0.158,0.768,-61.401,-120.605,-94.543
0.079,0.181,0.756,-63.721,-123.596,-99.670
0.055,0.228,0.754,-66.101,-128.906,-105.652
0.025,0.286,0.728,-67.749,-135.315,-111.145
-0.015,0.333,0.698,-68.298,-142.212,-115.234
-0.060,0.373,0.666,-68.054,-149.414,-117.554
-0.113,0.404,0.631,-67.017,-155.579,-119.263
-0.153,0.441,0.596,-66.040,-160.461,-121.094
-0.206,0.469,0.574,-65.491,-164.185,-121.338
-0.293,0.504,0.557,-64.819,-165.100,-119.141
-0.341,0.570,0.555,-63.477,-162.354,-116.333
-0.376,0.641,0.557,-60.608,-157.410,-114.136
-0.380,0.690,0.544,-55.908,-152.466,-111.755
-0.372,0.705,0.521,-49.561,-149.536,-108.521
-0.387,0.686,0.508,-42.969,-149.475,-105.286
-0.406,0.631,0.481,-38.025,-151.062,-102.783
-0.417,0.584,0.448,-35.828,-153.198,-101.868
-0.419,0.563,0.416,-36.133,-156.494,-102.356
-0.441,0.555,0.395,-38.147,-160.217,-103.699
-0.497,0.559,0.405,-41.565,-163.208,-105.225
-0.557,0.598,0.438,-45.166,-163.452,-105.957
-0.563,0.641,0.435,-48.035,-160.339,-105.347
-0.543,0.679,0.411,-49.744,-156.860,-101.990
-0.520,0.719,0.371,-49.622,-156.311,-95.886
-0.535,0.747,0.336,-47.729,-159.180,-90.088
-0.581,0.766,0.286,-44.312,-163.940,-86.304
-0.619,0.753,0.226,-39.246,-168.274,-84.595
-0.657,0.739,0.181,-33.875,-171.570,-84.900
-0.691,0.706,0.156,-30.090,-172.974,-86.365
-0.722,0.700,0.149,-28.503,-172.241,-87.280

-1.397,1.098,-0.051,82.520,162.354,93.811
-1.420,1.112,-0.038,85.510,172.119,101.501
-1.422,1.139,-0.019,89.050,182.617,109.009
-1.381,1.205,-0.005,93.628,192.810,115.906
-1.323,1.279,-0.006,99.792,201.233,122.070
-1.234,1.369,0.022,106.995,206.482,129.211
-1.096,1.424,0.028,114.990,207.764,140.808
-1.032,1.430,0.034,123.596,204.712,157.043
-1.030,1.343,0.046,131.287,200.806,172.424
-0.997,1.226,0.043,135.620,198.730,184.265
-0.922,1.122,0.022,135.620,198.975,193.542
-0.822,1.042,0.021,132.446,199.280,199.951
-0.734,0.980,0.032,127.869,199.768,204.346
-0.618,0.924,0.039,123.047,200.256,207.886
-0.476,0.944,0.083,118.774,200.684,210.510
-0.278,0.970,0.096,116.211,199.036,213.745
-0.111,0.955,0.128,115.845,192.383,219.360
-0.023,0.908,0.175,116.272,181.458,224.915
0.043,0.836,0.201,115.051,170.410,227.051
0.099,0.740,0.212,111.206,161.438,225.952
0.158,0.651,0.215,104.797,153.870,223.022
0.248,0.568,0.221,96.130,147.644,218.262
0.341,0.509,0.250,85.510,142.517,212.097
0.430,0.504,0.261,73.730,138.367,205.505
0.538,0.584,0.280,64.026,133.301,198.608
0.624,0.632,0.360,59.387,128.418,191.040
0.725,0.646,0.436,59.143,125.732,185.547
0.877,0.605,0.498,62.439,123.474,182.983
1.006,0.475,0.583,65.613,117.615,180.298
1.048,0.316,0.664,64.819,108.704,174.255
1.075,0.188,0.713,59.021,98.938,164.551
1.060,0.119,0.752,50.293,88.928,153.259
1.029,0.088,0.776,41.321,79.285,142.029
0.973,0.085,0.789,34.912,70.679,131.409
0.916,0.088,0.803,32.043,63.354,122.559
0.957,0.086,0.819,33.264,57.129,114.868
0.965,0.047,0.852,37.231,50.293,107.239
0.965,-0.043,0.866,41.382,43.213,99.548
0.952,-0.156,0.865,43.030,35.889,92.041
0.919,-0.261,0.866,40.222,27.405,84.045
0.864,-0.354,0.850,33.325,18.982,75.378
0.800,-0.428,0.835,22.156,10.864,66.345
0.736,-0.462,0.822,8.362,4.272,57.617
0.686,-0.454,0.816,-4.822,-0.488,49.561
0.651,-0.415,0.825,-16.724,-4.272,41.504
0.620,-0.353,0.847,-25.696,-7.019,32.410
0.576,-0.281,0.872,-30.273,-8.789,22.766
0.549,-0.228,0.883,-30.823,-9.827,13.794
0.508,-0.194,0.893,-28.625,-11.414,6.165
0.464,-0.188,0.900,-25.696,-13.489,0.366
0.415,-0.204,0.899,-23.437,-15.076,-3.601
0.374,-0.220,0.903,-22.705,-16.663,-7.568
0.335,-0.217,0.920,-23.254,-17.883,-13.306
0.320,-0.201,0.939,-24.170,-18.433,-19.958
0.317,-0.183,0.954,-25.024,-19.104,-26.123
0.310,-0.174,0.965,-26.367,-20.508,-31.250
0.300,-0.161,0.966,-28.320,-22.705,-35.706
0.285,-0.147,0.963,-31.006,-25.085,-40.222
0.264,-0.139,0.953,-34.241,-27.954,-45.166
0.247,-0.119,0.942,-38.330,-30.334,-50.049
0.245,-0.091,0.921,-42.664,-32.410,-53.528
0.239,-0.048,0.921,-46.814,-34.790,-55.786
0.238,0.006,0.928,-50.049,-36.926,-58.044
0.246,0.056,0.936,-51.819,-39.063,-60.608
0.238,0.095,0.946,-51.880,-41.992,-63.660
0.224,0.113,0.959,-50.842,-45.288,-67.017
0.202,0.111,0.965,-49.316,-48.340,-70.435
0.192,0.087,0.950,-48.279,-51.392,-73.181
0.179,0.076,0.943,-48.035,-54.932,-76.294
0.170,0.081,0.936,-48.950,-59.143,-79.956
0.162,0.100,0.935,-50.110,-63.843,-83.923
0.155,0.126,0.946,-51.392,-68.970,-87.402
0.128,0.137,0.961,-52.673,-73.730,-89.111
0.122,0.150,0.951,-54.932,-77.271,-89.294
0.128,0.179,0.919,-58.289,-80.933,-89.294
0.101,0.217,0.880,-61.218,-86.304,-90.454
0.071,0.230,0.837,-63.293,-91.980,-92.651
0.031,0.241,0.796,-65.308,-97.351,-94.971
-0.013,0.251,0.756,-67.017,-101.379,-96.375
-0.042,0.289,0.738,-68.787,-103.821,-96.985
-0.043,0.335,0.720,-69.153,-105.164,-97.168
-0.050,0.395,0.711,-67.871,-107.117,-97.778
-0.089,0.429,0.726,-65.002,-109.497,-99.243
-0.132,0.454,0.748,-61.218,-111.267,-99.487
-0.162,0.480,0.743,-57.190,-112.061,-97.290
-0.173,0.481,0.728,-53.101,-113.525,-93.933
-0.175,0.464,0.703,-49.561,-116.272,-90.271
-0.200,0.437,0.660,-47.180,-120.728,-87.585
-0.243,0.403,0.626,-46.387,-125.061,-87.219
-0.280,0.391,0.590,-47.607,-127.686,-88.257
-0.302,0.392,0.563,-49.561,-128.967,-89.661
-0.328,0.417,0.541,-51.697,-129.028,-91.614
-0.338,0.439,0.523,-53.528,-128.296,-94.238
-0.376,0.493,0.520,-54.565,-127.502,-96.619
-0.413,0.552,0.527,-53.833,-127.747,-98.816
-0.438,0.589,0.538,-51.575,-128.174,-99.915
-0.455,0.611,0.534,-48.645,-128.418,-97.900
-0.478,0.611,0.523,-45.105,-129.333,-92.224
-0.498,0.604,0.509,-41.382,-130.615,-86.121
-0.488,0.578,0.484,-37.781,-131.836,-82.825
-0.479,0.545,0.453,-35.278,-133.850,-83.374
-0.480,0.500,0.411,-34.668,-136.658,-85.449
-0.499,0.460,0.360,-36.865,-139.587,-87.524
-0.562,0.461,0.321,-42.358,-142.517,-89.294
-0.624,0.497,0.301,-49.500,-143.188,-90.820
-0.655,0.568,0.292,-55.237,-141.663,-91.248
-0.689,0.657,0.310,-58.777,-139.282,-90.088
-0.700,0.724,0.313,-58.533,-135.803,-87.524
-0.690,0.775,0.313,-54.871,-132.507,-83.374
-0.670,0.799,0.311,-48.279,-130.920,-78.979
-0.647,0.771,0.285,-40.466,-131.165,-75.134
-0.652,0.716,0.247,-33.997,-133.484,-72.266
-0.665,0.653,0.202,-31.067,-137.146,-70.740
-0.702,0.601,0.160,-32.654,-140.869,-70.923
-0.774,0.563,0.145,-38.513,-143.005,-71.777
-0.842,0.565,0.142,-47.058,-141.968,-72.693
-0.857,0.597,0.134,-56.580,-137.024,-73.975
-0.834,0.656,0.118,-65.002,-131.104,-74.768
-0.802,0.727,0.108,-70.740,-126.648,-74.219

-1.116,1.273,0.196,70.740,117.065,38.330
-1.106,1.338,0.185,76.050,122.375,47.974
-1.110,1.376,0.172,81.787,127.014,58.655
-1.115,1.396,0.172,87.646,130.615,69.214
-1.132,1.402,0.179,93.079,133.850,79.224
-1.122,1.407,0.175,98.206,136.963,89.050
-1.120,1.417,0.177,102.295,140.564,98.450
-1.111,1.431,0.166,105.530,144.348,108.398
-1.098,1.443,0.149,108.215,148.376,119.141
-1.091,1.488,0.150,110.657,152.466,129.517
-1.060,1.540,0.145,114.380,156.189,139.099
-1.017,1.595,0.135,120.056,158.936,148.193
-0.954,1.646,0.119,127.075,160.522,157.349
-0.886,1.673,0.082,135.742,161.011,167.725
-0.827,1.643,0.040,144.409,160.889,180.542
-0.774,1.579,0.034,151.611,160.461,194.275
-0.695,1.492,0.032,156.860,161.011,206.604
-0.589,1.384,0.020,160.278,161.926,216.614
-0.485,1.278,0.012,161.682,161.011,223.328
-0.405,1.176,0.028,161.072,157.959,227.051
-0.326,1.107,0.044,159.302,154.297,228.333
-0.226,1.059,0.059,157.104,150.391,227.722
-0.099,1.026,0.068,154.297,146.362,226.929
0.054,0.997,0.060,151.978,140.320,230.347
0.177,0.913,0.067,149.841,130.310,237.122
0.208,0.786,0.071,146.484,117.493,243.164
0.218,0.643,0.071,139.526,105.652,244.446
0.226,0.520,0.073,128.540,96.802,241.516
0.221,0.443,0.106,114.319,91.675,236.145
0.271,0.420,0.133,97.290,90.271,229.736
0.338,0.438,0.189,80.200,90.454,222.839
0.424,0.511,0.251,65.430,90.088,215.454
0.504,0.563,0.313,55.298,88.196,207.336
0.576,0.589,0.385,50.842,84.656,200.256
0.640,0.573,0.460,51.208,80.566,195.496
0.703,0.482,0.513,53.955,76.172,191.589
0.714,0.337,0.558,56.030,71.472,187.378
0.716,0.199,0.607,55.725,67.749,181.396
0.724,0.090,0.659,52.856,65.674,173.889
0.727,-0.013,0.704,47.974,64.575,164.673
0.741,-0.096,0.746,41.626,63.354,155.029
0.740,-0.159,0.794,34.729,60.669,145.508
0.745,-0.207,0.842,27.527,56.458,136.414
0.724,-0.254,0.888,20.569,51.025,127.991
0.684,-0.306,0.930,14.038,44.800,119.751
0.639,-0.357,0.960,7.690,38.757,109.924
0.589,-0.383,0.983,1.343,33.386,98.694
0.543,-0.405,0.994,-4.028,28.870,87.402
0.500,-0.418,1.000,-8.911,24.902,76.416
0.465,-0.411,1.005,-13.733,21.240,65.552
0.437,-0.382,1.019,-17.151,17.761,54.382
0.417,-0.337,1.035,-18.921,14.526,44.189
0.396,-0.305,1.047,-18.311,11.658,34.973
0.372,-0.276,1.053,-15.930,8.972,26.367
0.352,-0.246,1.055,-12.695,6.531,17.883
0.337,-0.241,1.047,-8.789,3.906,9.827
0.313,-0.249,1.038,-5.615,0.916,2.441
0.285,-0.250,1.039,-3.967,-2.136,-4.272
0.267,-0.242,1.036,-4.272,-4.517,-10.864
0.262,-0.217,1.035,-5.188,-6.226,-17.822
0.263,-0.185,1.038,-6.226,-8.057,-24.719
0.261,-0.162,1.036,-6.958,-10.071,-30.823
0.257,-0.145,1.023,-7.751,-12.024,-35.828
0.248,-0.146,1.005,-9.155,-14.343,-40.283
0.244,-0.140,0.988,-12.024,-16.663,-44.373
0.226,-0.117,0.976,-16.174,-19.165,-48.401
0.197,-0.089,0.975,-20.508,-21.179,-52.734
0.187,-0.043,0.977,-24.475,-21.851,-57.495
0.193,0.005,0.986,-27.283,-21.729,-62.500
0.217,0.045,0.983,-28.564,-21.667,-67.078
0.237,0.060,0.997,-28.015,-23.010,-71.167
0.242,0.073,0.996,-26.917,-25.818,-75.012
0.231,0.062,0.990,-26.001,-29.175,-79.041
0.210,0.047,0.976,-26.001,-31.982,-82.642
0.203,0.035,0.951,-27.466,-34.119,-85.510
0.190,0.023,0.929,-30.518,-36.438,-88.318
