aX,aY,aZ,gX,gY,gZ
-1.672,0.723,0.258,60.608,37.781,12.451
-1.800,0.724,0.229,78.369,44.983,20.020
-1.959,0.680,0.178,98.083,51.636,30.029
-2.085,0.603,0.126,118.347,57.373,40.833
-2.194,0.533,0.078,137.695,63.049,51.331
-2.321,0.472,0.050,156.067,69.519,60.608
-2.490,0.430,-0.019,174.805,77.698,67.993
-2.703,0.415,-0.104,194.397,85.876,74.158
-2.739,0.387,-0.112,215.576,95.337,77.148
-2.619,0.362,-0.053,237.732,106.445,79.651
-2.436,0.253,-0.056,257.751,118.958,85.999
-2.147,0.121,-0.085,274.475,127.014,93.689
-1.932,-0.021,-0.083,285.034,127.258,102.112
-1.844,-0.168,-0.058,290.222,121.887,108.398
-1.739,-0.300,-0.058,289.734,117.554,107.422
-1.514,-0.432,-0.019,283.813,117.859,99.548
-1.338,-0.501,-0.013,272.217,119.995,89.844
-1.238,-0.523,0.011,259.705,125.366,77.698
-1.137,-0.548,0.022,248.413,135.681,63.232
-0.958,-0.504,0.063,240.234,152.039,45.959
-0.621,-0.526,0.115,233.826,170.410,27.832
-0.179,-0.582,0.168,227.600,184.631,15.076
0.162,-0.655,0.261,220.032,188.293,11.108
0.383,-0.685,0.391,209.229,185.303,10.437
0.579,-0.691,0.508,198.730,187.622,6.592
0.817,-0.665,0.583,190.857,196.777,-7.080
1.166,-0.719,0.608,187.073,210.083,-34.607
1.494,-0.809,0.655,183.716,220.459,-69.763
1.725,-0.887,0.699,177.124,227.295,-103.516
1.970,-0.939,0.727,162.781,231.506,-130.615
2.152,-0.902,0.789,137.939,231.018,-150.330
2.317,-0.802,0.848,102.966,224.548,-163.940
2.486,-0.660,0.917,61.646,210.144,-169.067
2.539,-0.462,1.005,19.348,184.265,-161.499
2.417,-0.119,1.159,-19.043,151.489,-146.057
2.251,0.206,1.305,-48.950,118.469,-128.479
2.125,0.407,1.286,-67.444,85.510,-107.178
1.965,0.465,1.135,-77.209,46.204,-79.346
1.667,0.419,0.967,-81.299,-0.061,-40.222
1.345,0.293,0.836,-80.078,-43.152,6.287
1.088,0.089,0.752,-73.486,-73.608,50.293
0.935,-0.131,0.726,-61.890,-87.219,80.933
0.951,-0.326,0.723,-46.936,-87.708,93.506
1.073,-0.461,0.729,-31.372,-83.496,91.431
1.211,-0.537,0.717,-18.555,-82.397,81.970
1.308,-0.591,0.715,-11.536,-86.975,72.937
1.403,-0.674,0.663,-12.329,-97.473,70.496
1.402,-0.740,0.610,-21.667,-114.685,76.294
1.257,-0.739,0.609,-38.635,-133.850,83.679
1.134,-0.705,0.617,-59.692,-146.362,85.693
0.995,-0.652,0.611,-82.336,-149.536,81.787
0.887,-0.584,0.608,-103.088,-145.874,76.355
0.822,-0.530,0.631,-121.887,-139.160,70.618
0.799,-0.490,0.644,-138.977,-133.362,66.406
0.791,-0.432,0.664,-155.945,-130.676,64.270
0.795,-0.377,0.644,-172.485,-131.042,62.073
0.651,-0.352,0.565,-189.331,-133.545,58.044
0.370,-0.289,0.475,-206.848,-136.230,52.246
0.126,-0.175,0.395,-222.351,-134.644,45.288
-0.101,-0.062,0.373,-233.032,-126.160,37.598
-0.248,-0.015,0.358,-237.915,-112.183,29.846
-0.304,-0.047,0.367,-239.197,-97.839,23.987
-0.322,-0.059,0.390,-241.272,-87.646,18.738
-0.405,-0.092,0.410,-244.385,-81.482,11.597
-0.517,-0.125,0.411,-248.535,-76.721,1.709
-0.594,-0.101,0.364,-254.211,-72.266,-10.620
-0.742,-0.029,0.268,-260.315,-71.533,-25.940
-0.906,0.089,0.197,-265.808,-75.012,-41.809
-1.053,0.273,0.200,-267.944,-78.491,-54.443
-1.118,0.432,0.237,-264.404,-77.515,-62.805
-1.112,0.558,0.304,-255.371,-73.914,-66.528
-1.062,0.678,0.396,-241.150,-71.838,-67.627
-1.020,0.759,0.495,-222.656,-72.083,-69.519
-1.011,0.750,0.569,-201.782,-73.303,-73.120
-0.941,0.715,0.581,-181.335,-75.317,-76.721
-0.953,0.632,0.563,-164.062,-80.078,-80.872
-1.022,0.523,0.469,-153.015,-87.158,-88.013
-1.106,0.486,0.360,-148.865,-94.727,-97.656
-1.234,0.460,0.260,-151.245,-99.915,-108.704
-1.332,0.463,0.194,-157.898,-100.891,-115.967
-1.323,0.578,0.189,-166.138,-97.717,-117.188
-1.285,0.708,0.201,-171.753,-93.079,-115.295
-1.246,0.816,0.193,-172.241,-89.844,-111.694
-1.249,0.928,0.202,-167.114,-87.708,-105.530
-1.316,0.990,0.203,-156.372,-84.717,-98.267
-1.316,1.045,0.201,-141.113,-78.369,-91.431
-1.276,1.056,0.208,-124.146,-70.007,-87.708
-1.203,1.028,0.199,-107.788,-61.951,-85.938
-1.126,1.019,0.186,-94.360,-57.007,-82.275
-1.112,1.026,0.176,-83.618,-55.115,-76.416
-1.129,1.025,0.169,-75.195,-53.528,-69.885
-1.127,1.020,0.148,-67.932,-49.500,-62.805
-1.080,1.039,0.111,-61.218,-43.457,-55.786
-1.028,1.063,0.089,-54.504,-37.598,-48.218
-1.007,1.068,0.075,-47.180,-32.715,-40.161
-0.994,1.056,0.082,-39.307,-28.259,-32.715
-0.942,1.056,0.116,-32.227,-24.475,-25.146
-0.911,1.078,0.157,-25.208,-21.118,-16.968
-0.869,1.086,0.200,-17.578,-19.592,-7.996
-0.814,1.072,0.249,-8.423,-20.630,0.854
-0.777,1.032,0.243,1.343,-24.780,9.583
-0.780,0.959,0.228,11.108,-31.067,15.625
-0.790,0.882,0.213,19.958,-36.926,18.494
-0.787,0.777,0.213,26.978,-40.527,19.165
-0.768,0.616,0.162,27.954,-41.077,18.372
-0.755,0.559,0.144,19.226,-42.236,16.113
-0.752,0.541,0.122,4.333,-41.931,13.733
-0.757,0.583,0.100,-11.414,-41.138,12.756
-0.766,0.706,0.105,-25.513,-39.978,12.024
-0.755,0.791,0.089,-33.997,-37.048,11.414
-0.746,0.869,0.089,-35.522,-33.386,12.573
-0.731,0.911,0.083,-31.494,-29.114,15.259
-0.722,0.945,0.079,-23.376,-24.353,18.677
-0.717,0.961,0.080,-12.390,-19.653,21.423
-0.722,0.928,0.076,0.427,-15.259,23.010
-0.730,0.870,0.078,13.916,-10.498,23.499
-0.720,0.800,0.078,25.269,-5.432,23.315
-0.691,0.754,0.100,33.142,-0.427,23.499
-0.626,0.710,0.108,37.415,3.723,23.376

-1.572,1.104,-0.040,65.979,44.312,27.893
-1.611,1.199,-0.033,80.566,49.683,35.645
-1.657,1.275,-0.032,99.854,54.871,45.288
-1.674,1.270,-0.031,122.925,59.204,56.641
-1.787,1.250,-0.059,149.109,62.073,69.397
-1.845,1.216,-0.101,175.903,66.589,84.656
-1.905,1.181,-0.144,202.881,70.862,99.365
-1.977,1.112,-0.162,229.065,75.500,113.647
-1.983,1.077,-0.146,252.808,80.566,126.709
-1.927,1.029,-0.140,275.024,84.106,139.709
-1.905,0.970,-0.170,296.509,82.153,153.320
-1.983,0.905,-0.200,318.298,75.317,166.016
-2.039,0.836,-0.216,339.539,69.397,174.133
-1.984,0.748,-0.248,359.192,66.528,175.537
-1.862,0.632,-0.303,375.732,64.758,172.424
-1.814,0.616,-0.290,389.038,63.293,167.175
-1.743,0.541,-0.336,401.367,65.491,160.583
-1.649,0.389,-0.401,412.476,69.519,153.992
-1.620,0.153,-0.436,419.067,75.073,147.888
-1.524,-0.156,-0.410,416.260,86.426,138.611
-1.118,-0.537,-0.422,398.804,100.830,125.610
-0.744,-0.887,-0.429,363.647,103.271,113.647
-0.699,-1.039,-0.295,313.721,93.811,103.821
-0.736,-0.987,-0.158,259.399,91.309,92.285
-0.592,-0.866,-0.108,212.402,108.032,78.735
-0.263,-0.794,-0.086,176.514,137.695,66.223
0.190,-0.781,-0.031,151.123,170.227,56.702
0.671,-0.803,0.035,132.690,199.097,50.598
1.096,-0.781,0.159,118.347,223.267,43.396
1.579,-0.775,0.263,107.117,244.202,29.480
1.993,-0.835,0.368,99.121,259.766,6.897
2.286,-0.943,0.449,90.332,266.968,-22.400
2.493,-1.064,0.526,75.684,266.357,-55.603
2.605,-1.068,0.617,50.232,260.681,-88.135
2.674,-0.979,0.630,14.709,250.549,-115.051
2.618,-0.783,0.637,-27.344,233.765,-132.507
2.387,-0.470,0.703,-71.716,211.548,-138.550
2.117,-0.058,0.761,-108.459,189.392,-131.653
1.880,0.313,0.820,-128.052,166.199,-114.136
1.633,0.571,0.927,-126.282,138.977,-86.975
1.437,0.607,1.001,-105.225,108.337,-52.979
1.303,0.455,1.030,-72.815,74.951,-19.470
1.205,0.200,1.039,-39.368,40.161,5.188
1.103,-0.061,1.036,-11.780,8.057,19.592
1.044,-0.304,0.985,6.714,-19.653,24.475
1.019,-0.490,0.896,17.151,-43.884,25.208
0.969,-0.609,0.814,19.043,-64.880,24.841
0.907,-0.659,0.761,13.428,-80.994,23.987
0.892,-0.683,0.714,2.869,-90.820,23.071
0.923,-0.692,0.680,-11.108,-96.008,22.888
0.956,-0.714,0.664,-29.480,-100.281,23.193
1.024,-0.733,0.649,-51.941,-105.835,25.208
1.068,-0.766,0.623,-79.163,-114.075,28.076
1.003,-0.777,0.603,-111.694,-124.512,30.640
0.884,-0.666,0.633,-147.156,-132.385,33.020
0.811,-0.427,0.684,-178.894,-134.216,35.400
0.791,-0.201,0.743,-199.158,-132.141,38.757
0.812,-0.006,0.810,-206.726,-129.517,44.495
0.828,0.115,0.872,-204.590,-127.625,51.270
0.830,0.129,0.877,-197.876,-126.221,57.495
0.812,0.053,0.817,-192.200,-127.014,62.805
0.636,-0.035,0.751,-193.298,-130.432,65.186
0.389,-0.082,0.669,-202.881,-131.348,65.491
0.205,-0.116,0.634,-219.299,-126.892,63.965
0.008,-0.131,0.613,-242.554,-115.906,60.486
-0.102,-0.182,0.531,-271.362,-100.098,54.443
-0.153,-0.211,0.441,-304.687,-86.243,49.194
-0.247,-0.212,0.309,-339.539,-79.224,46.875
-0.383,-0.149,0.196,-371.826,-77.332,46.265
-0.542,-0.054,0.122,-398.499,-75.989,43.030
-0.627,0.058,0.059,-418.152,-72.937,34.302
-0.637,0.152,-0.028,-430.664,-70.435,19.531
-0.622,0.283,-0.108,-436.890,-73.181,0.183
-0.686,0.431,-0.155,-436.218,-82.458,-20.325
-0.821,0.594,-0.135,-427.368,-94.482,-39.978
-0.919,0.770,-0.094,-410.583,-103.943,-55.847
-1.033,0.938,-0.039,-386.230,-109.985,-64.880
-1.097,1.090,0.027,-355.164,-113.464,-67.078
-1.121,1.135,0.044,-319.031,-116.272,-62.378
-1.127,1.206,0.016,-279.602,-121.826,-52.185
-1.251,1.267,0.021,-238.770,-129.150,-45.715
-1.371,1.209,0.037,-198.425,-133.179,-47.241
-1.388,1.120,-0.022,-160.034,-131.470,-49.255
-1.399,1.004,-0.083,-127.075,-127.808,-49.866
-1.421,0.852,-0.160,-103.271,-123.108,-51.819
-1.403,0.772,-0.215,-90.088,-117.981,-53.650
-1.426,0.757,-0.248,-85.266,-113.708,-55.359
-1.439,0.764,-0.269,-84.412,-109.802,-57.007
-1.408,0.838,-0.268,-84.473,-105.835,-57.495
-1.345,0.876,-0.254,-83.801,-102.234,-58.594
-1.266,0.922,-0.212,-82.031,-99.854,-60.486
-1.202,0.957,-0.176,-78.796,-97.900,-59.937
-1.172,0.989,-0.172,-75.562,-95.032,-56.335
-1.187,1.039,-0.177,-72.693,-90.698,-51.392
-1.191,1.104,-0.177,-69.458,-83.069,-43.884
-1.163,1.070,-0.191,-62.378,-74.036,-31.616
-1.160,1.138,-0.219,-52.917,-67.322,-17.456
-1.173,1.093,-0.199,-40.710,-63.293,-7.996
-1.105,1.066,-0.182,-27.283,-58.838,-0.427
-1.010,1.007,-0.196,-13.916,-57.190,6.653
-0.964,0.944,-0.206,-2.502,-59.570,13.184
-0.943,0.885,-0.220,5.737,-62.134,17.578
-0.900,0.841,-0.243,11.108,-62.012,19.531
-0.821,0.833,-0.269,13.550,-60.547,20.691
-0.745,0.839,-0.291,14.587,-60.181,20.935
-0.702,0.851,-0.298,14.465,-60.669,20.386
-0.689,0.867,-0.309,13.977,-60.425,20.996
-0.707,0.869,-0.311,13.184,-58.594,22.949
-0.728,0.864,-0.299,12.939,-54.077,24.719
-0.727,0.856,-0.275,13.611,-47.302,24.475
-0.699,0.862,-0.249,15.381,-40.161,22.583
-0.691,0.860,-0.230,19.104,-34.668,20.691
-0.706,0.837,-0.211,24.170,-30.823,18.555
-0.741,0.744,-0.198,28.381,-27.527,15.747
-0.762,0.692,-0.189,28.931,-23.376,13.245
-0.747,0.700,-0.182,25.574,-18.799,11.597
-0.709,0.709,-0.176,21.790,-15.320,9.766
-0.696,0.725,-0.168,18.188,-14.771,7.812
-0.690,0.749,-0.169,15.808,-15.320,6.104

-1.391,1.022,-0.227,98.083,37.537,-3.052
-1.508,1.023,-0.238,111.023,42.969,-1.160
-1.612,1.056,-0.247,125.610,49.133,1.282
-1.737,1.099,-0.279,142.456,54.810,5.066
-1.888,1.153,-0.324,161.987,58.838,11.169
-2.073,1.197,-0.385,184.509,62.500,17.578
-2.252,1.248,-0.454,208.374,67.444,23.926
-2.413,1.297,-0.521,233.337,73.792,31.677
-2.519,1.347,-0.597,258.484,81.787,42.358
-2.694,1.387,-0.647,284.485,90.088,54.871
-2.802,1.432,-0.693,311.768,101.257,70.374
-2.793,1.506,-0.651,340.942,116.211,85.632
-2.505,1.595,-0.586,372.864,131.287,101.257
-2.087,1.483,-0.620,408.081,137.329,121.216
-1.830,1.335,-0.607,442.444,126.587,146.301
-1.711,1.157,-0.580,472.229,105.957,169.189
-1.571,0.923,-0.593,496.399,86.792,181.152
-1.488,0.596,-0.589,511.169,73.853,177.429
-1.357,0.249,-0.496,513.672,69.702,162.048
-0.988,-0.071,-0.423,501.160,72.266,141.602
-0.667,-0.345,-0.354,473.328,72.205,121.826
-0.544,-0.502,-0.215,433.044,69.275,104.187
-0.437,-0.588,-0.061,387.573,73.547,88.745
-0.092,-0.672,0.042,342.834,87.585,77.087
0.337,-0.797,0.126,298.889,101.624,70.496
0.587,-0.833,0.292,258.118,110.657,67.810
0.758,-0.847,0.389,224.976,122.192,65.430
1.055,-0.906,0.369,198.425,138.000,58.838
1.421,-0.969,0.333,174.133,151.245,44.250
1.740,-0.953,0.339,149.475,158.630,22.156
1.895,-0.827,0.438,124.878,166.748,-3.052
2.039,-0.677,0.530,104.126,183.411,-25.513
2.165,-0.576,0.650,88.806,203.430,-42.175
2.312,-0.504,0.827,80.566,216.919,-47.913
2.507,-0.549,0.975,80.933,216.309,-40.466
2.601,-0.626,1.130,85.205,199.890,-28.748
2.565,-0.748,1.218,85.205,171.692,-26.428
2.475,-0.893,1.189,73.608,134.460,-41.687
2.279,-0.955,1.096,45.959,86.548,-69.397
1.969,-0.852,0.952,7.935,33.386,-90.820
1.618,-0.669,0.739,-31.616,-13.184,-91.614
1.297,-0.464,0.538,-67.627,-48.828,-74.768
1.038,-0.307,0.386,-94.849,-70.923,-47.913
0.841,-0.281,0.290,-112.000,-80.139,-18.066
0.775,-0.330,0.247,-121.277,-80.200,10.986
0.804,-0.427,0.244,-125.854,-75.867,36.804
0.846,-0.528,0.268,-129.028,-72.083,53.467
0.853,-0.610,0.311,-132.446,-70.679,60.181
0.876,-0.634,0.358,-136.658,-71.106,61.768
0.950,-0.615,0.401,-140.991,-74.707,61.462
1.033,-0.589,0.407,-145.386,-82.642,61.646
1.030,-0.534,0.408,-150.757,-94.727,61.707
0.962,-0.410,0.419,-156.311,-105.835,61.829
0.872,-0.262,0.418,-159.912,-110.596,59.875
0.758,-0.117,0.433,-160.217,-108.765,55.420
0.642,-0.003,0.434,-157.227,-101.624,51.025
0.550,0.048,0.455,-152.405,-92.651,48.462
0.516,0.034,0.502,-148.682,-84.412,47.607
0.466,-0.050,0.544,-151.550,-78.613,47.302
0.423,-0.152,0.567,-163.757,-76.233,48.462
0.320,-0.203,0.561,-184.753,-76.538,50.598
0.103,-0.182,0.516,-211.243,-77.515,49.377
-0.171,-0.070,0.447,-237.427,-76.721,43.457
-0.434,0.094,0.399,-258.545,-71.777,33.020
-0.619,0.244,0.355,-272.217,-61.523,19.897
-0.721,0.351,0.323,-279.175,-47.607,5.127
-0.742,0.409,0.318,-282.532,-34.424,-9.033
-0.699,0.430,0.337,-284.241,-25.574,-19.165
-0.715,0.445,0.396,-284.546,-22.156,-24.414
-0.784,0.453,0.459,-284.668,-20.508,-28.320
-0.920,0.415,0.480,-285.278,-18.921,-34.729
-1.001,0.388,0.461,-287.415,-19.104,-41.809
-0.982,0.485,0.420,-290.039,-25.635,-46.875
-0.996,0.623,0.395,-290.283,-37.903,-51.514
-1.012,0.741,0.367,-287.537,-51.636,-56.641
-1.052,0.857,0.359,-282.349,-62.378,-62.134
-1.050,0.952,0.384,-274.780,-67.871,-67.993
-0.991,0.953,0.384,-264.709,-70.068,-73.181
-0.998,0.892,0.380,-254.333,-73.914,-76.416
-1.053,0.845,0.379,-246.521,-79.407,-77.454
-1.052,0.830,0.357,-240.784,-84.534,-77.087
-1.097,0.811,0.296,-236.450,-89.905,-75.378
-1.198,0.831,0.225,-233.093,-94.788,-74.097
-1.239,0.954,0.158,-230.408,-96.558,-77.698
-1.230,1.117,0.084,-225.342,-94.910,-86.670
-1.237,1.226,0.031,-216.370,-91.309,-96.680
-1.240,1.324,-0.002,-204.529,-86.365,-100.159
-1.245,1.412,-0.005,-189.819,-79.895,-94.360
-1.220,1.448,0.002,-172.424,-71.716,-83.130
-1.184,1.483,0.032,-152.832,-62.500,-69.458
-1.116,1.500,0.060,-130.859,-53.528,-57.312
-1.045,1.466,0.071,-107.544,-46.204,-49.133
-0.988,1.396,0.066,-85.205,-41.504,-43.396
-0.950,1.308,0.055,-66.162,-38.757,-38.147
-0.912,1.215,0.038,-51.758,-36.743,-31.860
-0.863,1.103,-0.001,-42.542,-34.424,-24.231
-0.838,1.008,-0.042,-38.940,-32.166,-16.541
-0.810,0.942,-0.076,-39.063,-29.480,-11.169
-0.751,0.906,-0.117,-41.382,-25.696,-9.460
-0.701,0.882,-0.144,-45.105,-22.339,-9.888
-0.690,0.891,-0.153,-49.927,-20.264,-10.315
-0.669,0.943,-0.139,-54.382,-18.799,-8.667
-0.608,1.001,-0.146,-56.152,-18.677,-5.127
-0.602,1.046,-0.118,-52.917,-21.790,-1.221
-0.601,1.035,-0.117,-45.776,-26.184,3.113
-0.610,1.002,-0.128,-37.537,-29.968,6.775
-0.628,0.976,-0.144,-30.273,-32.166,10.132
-0.629,0.958,-0.162,-24.719,-31.677,12.390
-0.628,0.942,-0.178,-18.677,-29.968,13.550
-0.615,0.926,-0.173,-12.512,-27.344,13.672
-0.567,0.906,-0.163,-6.714,-24.353,14.099
-0.528,0.878,-0.168,-2.380,-23.132,16.174
-0.541,0.849,-0.159,-0.122,-24.353,19.775
-0.573,0.816,-0.168,0.305,-25.269,21.790
-0.599,0.780,-0.167,-0.793,-23.926,20.935
-0.597,0.766,-0.164,-3.357,-20.508,18.616
-0.589,0.767,-0.165,-6.226,-16.541,16.113
-0.583,0.774,-0.154,-8.789,-12.329,13.367
-0.561,0.790,-0.143,-10.437,-8.057,10.437

-1.468,1.129,-0.262,98.877,40.100,9.460
-1.603,1.224,-0.303,118.713,45.044,9.094
-1.838,1.297,-0.349,142.944,49.377,7.263
-2.118,1.322,-0.419,170.776,54.626,5.737
-2.298,1.364,-0.480,199.707,62.073,7.019
-2.453,1.416,-0.517,226.746,70.251,10.986
-2.530,1.507,-0.583,252.869,79.285,18.677
-2.644,1.608,-0.596,279.236,88.928,26.611
-2.695,1.693,-0.594,306.580,100.830,33.752
-2.630,1.621,-0.621,334.229,113.159,43.335
-2.468,1.522,-0.636,357.910,118.347,59.082
-2.312,1.502,-0.579,375.854,114.380,80.566
-2.106,1.373,-0.524,388.123,104.126,104.309
-1.819,1.263,-0.476,397.888,88.135,131.775
-1.631,1.102,-0.433,401.001,64.392,158.752
-1.529,0.980,-0.354,399.963,35.706,179.565
-1.439,0.860,-0.321,400.085,12.207,193.359
-1.328,0.696,-0.318,403.320,-0.549,195.740
-1.179,0.450,-0.313,409.302,-0.610,185.730
-0.962,0.152,-0.327,414.551,10.437,166.321
-0.731,-0.164,-0.341,414.124,27.893,141.357
-0.475,-0.442,-0.303,404.419,48.401,115.601
-0.105,-0.648,-0.252,385.315,69.702,92.651
0.343,-0.823,-0.176,358.948,85.754,74.036
0.787,-1.006,-0.068,326.172,93.689,61.340
1.089,-1.095,0.038,289.185,96.375,56.519
1.258,-1.046,0.170,253.357,100.708,57.617
1.358,-0.937,0.347,225.220,113.464,54.688
1.564,-0.948,0.431,205.750,137.573,38.574
1.923,-1.065,0.445,190.613,165.710,11.658
2.273,-1.200,0.485,174.316,187.805,-17.090
2.477,-1.274,0.550,152.222,198.914,-42.114
2.552,-1.200,0.657,124.451,199.890,-59.570
2.492,-1.025,0.788,93.262,194.702,-72.266
2.410,-0.820,0.907,62.256,185.913,-83.801
2.207,-0.623,1.003,35.400,169.128,-95.032
1.928,-0.541,1.054,15.320,142.578,-100.525
1.797,-0.476,1.057,-0.122,110.168,-94.788
1.738,-0.343,1.000,-13.245,74.219,-82.092
1.555,-0.186,0.896,-24.231,39.063,-71.045
1.253,-0.029,0.825,-29.724,11.047,-62.256
0.887,0.055,0.812,-27.283,-4.456,-49.744
0.645,0.031,0.793,-18.799,-6.653,-30.212
0.572,-0.147,0.828,-9.888,-1.831,-7.324
0.606,-0.353,0.876,-6.653,2.075,13.916
0.680,-0.603,0.945,-12.268,0.977,30.884
0.759,-0.737,1.048,-27.100,-6.042,42.358
0.867,-0.808,1.083,-45.654,-16.724,46.875
0.943,-0.766,1.083,-64.453,-32.043,45.044
0.936,-0.692,1.081,-80.383,-50.842,41.443
0.889,-0.648,1.043,-93.323,-68.665,40.161
0.833,-0.638,0.964,-104.919,-83.374,42.908
0.753,-0.589,0.914,-114.990,-95.215,47.974
0.673,-0.525,0.897,-122.559,-102.234,50.598
0.628,-0.458,0.874,-127.136,-104.553,49.744
0.623,-0.381,0.872,-129.272,-104.065,47.119
0.636,-0.329,0.876,-129.761,-103.210,44.128
0.655,-0.309,0.868,-131.042,-102.844,41.809
0.670,-0.303,0.841,-134.949,-103.210,40.283
0.612,-0.312,0.799,-142.517,-103.882,37.964
0.483,-0.341,0.756,-153.564,-103.455,34.058
0.309,-0.330,0.680,-168.274,-100.647,28.992
0.104,-0.254,0.618,-184.875,-96.252,21.973
-0.090,-0.167,0.552,-201.416,-89.478,13.367
-0.228,-0.083,0.486,-216.553,-79.285,7.446
-0.292,0.028,0.466,-229.431,-66.833,5.981
-0.254,0.118,0.480,-239.075,-52.185,4.700
-0.209,0.134,0.452,-246.094,-37.537,-0.854
-0.186,0.159,0.429,-252.808,-27.161,-8.850
-0.195,0.156,0.385,-259.399,-21.057,-18.860
-0.260,0.175,0.291,-266.235,-18.311,-30.396
-0.460,0.244,0.203,-274.048,-18.311,-43.762
-0.647,0.334,0.155,-281.982,-17.883,-55.725
-0.760,0.411,0.139,-289.490,-14.648,-61.279
-0.839,0.481,0.138,-296.875,-9.949,-61.096
-0.879,0.563,0.173,-302.124,-5.859,-58.350
-0.890,0.650,0.220,-302.979,-2.075,-57.129
-0.869,0.726,0.248,-297.546,0.793,-59.143
-0.814,0.787,0.259,-285.156,1.465,-64.880
-0.716,0.809,0.266,-267.944,-0.732,-73.914
-0.722,0.760,0.169,-250.793,-7.629,-83.069
-0.823,0.738,0.118,-237.793,-20.020,-87.952
-0.828,0.825,0.125,-228.760,-32.959,-88.745
-0.877,0.913,0.140,-221.985,-43.213,-89.783
-0.954,0.982,0.148,-215.332,-50.171,-90.332
-0.920,1.081,0.195,-206.909,-54.260,-88.928
-0.823,1.105,0.200,-197.571,-57.434,-88.196
-0.727,1.080,0.139,-188.110,-64.148,-85.144
-0.713,1.095,0.090,-179.810,-76.416,-79.041
-0.792,1.095,0.052,-171.814,-88.074,-74.402
-0.876,1.005,-0.036,-165.527,-92.957,-73.059
-0.902,0.960,-0.099,-163.452,-91.553,-72.571
-0.946,0.980,-0.113,-165.894,-86.853,-72.388
-0.949,1.059,-0.115,-169.373,-79.529,-71.655
-0.912,1.157,-0.084,-169.861,-72.449,-70.007
-0.874,1.247,-0.045,-165.344,-67.200,-66.589
-0.828,1.338,-0.033,-155.518,-64.758,-59.937
-0.831,1.406,-0.026,-140.869,-64.697,-50.781
-0.839,1.434,-0.027,-122.437,-64.636,-41.077
-0.820,1.417,-0.049,-101.563,-62.927,-33.203
-0.810,1.383,-0.060,-80.566,-60.913,-28.870
-0.807,1.332,-0.064,-61.523,-58.411,-27.222
-0.794,1.290,-0.082,-46.082,-54.626,-25.208
-0.794,1.244,-0.096,-34.180,-49.805,-20.874
-0.764,1.221,-0.104,-25.879,-43.701,-13.611
-0.699,1.230,-0.119,-20.142,-37.170,-5.127
-0.669,1.240,-0.140,-15.076,-32.043,3.113
-0.663,1.227,-0.148,-9.583,-28.198,10.193
-0.639,1.189,-0.152,-3.540,-24.292,14.954
-0.606,1.129,-0.143,2.075,-21.423,17.822
-0.580,1.067,-0.138,5.737,-20.325,21.057
-0.586,1.026,-0.135,7.019,-19.897,25.330
-0.586,1.013,-0.117,6.287,-19.043,28.809
-0.563,0.992,-0.114,4.395,-16.968,30.823
-0.548,0.977,-0.116,2.136,-15.381,31.921
-0.531,0.959,-0.115,0.061,-14.343,32.288
-0.522,0.948,-0.122,-2.075,-13.855,31.311
-0.510,0.919,-0.126,-3.967,-13.428,29.541
-0.505,0.908,-0.131,-6.042,-13.489,27.893

-1.383,1.055,-0.328,82.092,23.926,6.653
-1.556,1.109,-0.359,92.102,28.748,10.803
-1.701,1.184,-0.403,101.318,33.447,15.625
-1.821,1.305,-0.459,109.802,36.804,20.264
-1.967,1.465,-0.520,117.737,38.208,23.010
-2.147,1.650,-0.587,127.563,39.001,25.269
-2.344,1.831,-0.622,141.541,41.748,28.137
-2.463,1.997,-0.657,160.156,47.974,34.607
-2.514,2.097,-0.677,183.411,56.213,47.485
-2.502,2.149,-0.673,209.900,64.575,67.871
-2.396,2.139,-0.657,237.976,71.289,94.543
-2.238,2.057,-0.660,267.090,74.341,125.610
-2.000,1.965,-0.674,297.546,72.266,159.790
-1.765,1.911,-0.661,329.285,64.270,192.566
-1.494,1.753,-0.693,363.770,52.734,218.262
-1.305,1.594,-0.732,398.621,38.269,234.985
-1.211,1.437,-0.797,432.861,23.437,244.019
-1.116,1.254,-0.888,467.346,11.841,246.460
-1.100,0.989,-0.981,499.268,6.531,243.469
-0.978,0.588,-1.028,525.391,11.169,233.459
-0.687,0.041,-1.081,538.147,21.179,217.163
-0.393,-0.567,-1.119,529.602,25.818,198.059
-0.279,-1.043,-1.055,495.422,22.644,180.786
-0.354,-1.253,-0.907,441.833,21.606,166.931
-0.445,-1.293,-0.726,379.944,38.940,151.245
-0.276,-1.333,-0.547,317.993,78.064,135.864
0.108,-1.330,-0.352,259.521,128.723,119.751
0.576,-1.298,-0.101,209.534,178.589,99.609
1.051,-1.297,0.129,169.495,222.961,74.951
1.472,-1.311,0.406,138.611,258.545,43.152
2.027,-1.363,0.615,113.037,283.386,8.179
2.549,-1.365,0.864,90.759,292.053,-22.705
2.922,-1.341,1.123,70.251,287.231,-50.415
3.184,-1.209,1.382,51.331,280.579,-76.355
3.326,-0.983,1.529,31.494,272.766,-101.563
3.299,-0.717,1.555,10.254,255.859,-124.146
2.926,-0.377,1.585,-11.292,220.581,-140.320
2.407,-0.014,1.614,-28.687,171.387,-144.592
2.010,0.262,1.555,-36.743,117.920,-128.906
1.729,0.393,1.431,-36.072,63.049,-95.398
1.462,0.416,1.269,-29.968,10.254,-52.979
1.231,0.277,1.075,-21.240,-33.691,-11.597
1.128,0.050,0.931,-12.634,-67.627,25.757
1.092,-0.178,0.836,-6.287,-90.332,55.908
1.121,-0.402,0.789,-3.418,-103.271,72.266
1.208,-0.585,0.730,-4.089,-109.985,75.134
1.232,-0.737,0.677,-10.132,-116.394,69.092
1.247,-0.812,0.656,-22.827,-122.864,60.974
1.303,-0.901,0.587,-42.114,-128.784,52.917
1.304,-0.957,0.486,-69.641,-137.024,46.997
1.122,-0.920,0.427,-103.516,-146.301,44.861
0.930,-0.805,0.364,-138.916,-148.376,44.434
0.712,-0.693,0.323,-172.119,-140.625,42.053
0.556,-0.604,0.302,-202.454,-124.878,37.659
0.474,-0.548,0.292,-229.858,-105.347,32.837
0.453,-0.529,0.266,-256.165,-88.013,29.358
0.416,-0.464,0.281,-281.738,-76.660,26.855
0.354,-0.375,0.306,-305.359,-69.214,22.949
0.278,-0.334,0.280,-325.562,-63.354,18.066
0.160,-0.235,0.252,-343.811,-59.204,11.597
-0.021,-0.100,0.173,-359.863,-54.565,1.953
-0.241,0.142,0.054,-372.070,-48.767,-10.559
-0.469,0.462,0.001,-376.343,-42.664,-24.231
-0.668,0.789,0.073,-366.821,-34.973,-32.776
-0.772,0.981,0.228,-341.248,-23.682,-34.180
-0.716,0.978,0.321,-305.969,-10.437,-33.569
-0.620,0.887,0.461,-269.348,-3.967,-31.311
-0.481,0.799,0.558,-240.601,-4.395,-30.396
-0.437,0.708,0.589,-220.886,-12.207,-31.921
-0.503,0.703,0.558,-209.351,-27.466,-35.645
-0.649,0.776,0.471,-203.735,-45.837,-43.213
-0.847,0.875,0.377,-198.242,-64.392,-53.284
-1.034,1.003,0.335,-189.514,-76.782,-64.392
-1.200,1.009,0.301,-179.077,-79.834,-77.332
-1.177,0.978,0.247,-169.922,-74.280,-85.754
-1.139,0.930,0.189,-164.612,-67.993,-85.266
-1.152,0.897,0.142,-163.757,-64.697,-76.782
-1.149,0.950,0.109,-164.307,-63.965,-63.843
-1.154,0.996,0.076,-162.659,-65.002,-54.565
-1.185,0.958,-0.002,-160.156,-68.054,-55.847
-1.240,0.879,-0.076,-160.339,-73.853,-65.857
-1.257,0.919,-0.162,-163.574,-78.674,-78.308
-1.329,0.985,-0.216,-168.091,-80.994,-91.187
-1.399,1.032,-0.236,-171.204,-78.247,-98.816
-1.378,1.110,-0.230,-173.157,-68.542,-97.351
-1.256,1.159,-0.214,-174.622,-55.054,-90.515
-1.115,1.189,-0.178,-174.927,-44.434,-80.078
-1.027,1.195,-0.171,-174.255,-39.490,-67.871
-1.041,1.226,-0.155,-172.485,-39.063,-58.289
-1.059,1.275,-0.141,-167.358,-38.696,-53.406
-1.063,1.346,-0.133,-155.273,-36.377,-49.500
-1.086,1.414,-0.105,-135.620,-32.349,-45.593
-1.112,1.441,-0.078,-109.497,-24.963,-39.368
-1.051,1.421,-0.042,-79.895,-14.893,-30.823
-0.924,1.322,-0.032,-51.086,-5.188,-19.531
-0.790,1.211,-0.027,-27.710,-0.244,-5.737
-0.684,1.102,-0.048,-11.719,-0.366,7.629
-0.677,0.966,-0.075,-3.235,-4.456,17.944
-0.702,0.828,-0.104,-1.770,-8.545,22.644
-0.719,0.713,-0.128,-5.981,-10.254,23.132
-0.741,0.666,-0.130,-15.442,-10.742,21.912
-0.747,0.681,-0.118,-26.489,-9.827,21.606
-0.729,0.768,-0.103,-35.217,-8.240,21.484
-0.704,0.866,-0.073,-37.842,-6.836,20.813
-0.636,0.900,-0.043,-34.851,-6.409,20.020
-0.527,0.947,-0.057,-29.968,-7.446,20.996
-0.497,0.921,-0.060,-22.278,-13.000,23.254
-0.525,0.875,-0.082,-16.907,-20.447,26.306
-0.579,0.828,-0.115,-14.526,-24.780,26.733
-0.608,0.801,-0.135,-14.648,-25.085,25.085
-0.605,0.791,-0.150,-16.235,-21.912,23.193
-0.595,0.813,-0.140,-17.334,-17.578,22.583
-0.573,0.837,-0.140,-16.113,-13.000,21.790
-0.532,0.866,-0.113,-12.024,-8.850,20.386
-0.504,0.865,-0.098,-5.371,-7.385,19.287
-0.512,0.844,-0.100,1.831,-8.118,18.372
-0.544,0.790,-0.109,7.812,-9.216,16.296
-0.570,0.720,-0.132,10.010,-9.216,12.573
-0.585,0.685,-0.151,6.958,-7.446,8.606

-1.418,1.145,-0.264,85.938,40.466,10.864
-1.550,1.243,-0.282,89.844,43.152,12.695
-1.674,1.382,-0.296,94.788,48.096,14.160
-1.776,1.528,-0.309,103.455,55.969,17.029
-1.876,1.664,-0.304,116.943,65.857,22.949
-1.948,1.747,-0.292,135.742,76.843,31.799
-1.938,1.789,-0.245,159.790,87.036,43.701
-1.850,1.728,-0.246,185.608,92.712,59.387
-1.831,1.623,-0.264,209.351,88.379,79.773
-1.914,1.534,-0.254,229.248,76.416,101.257
-1.950,1.425,-0.242,246.216,67.322,121.460
-1.924,1.322,-0.277,263.000,64.514,138.855
-1.926,1.219,-0.340,282.043,63.477,152.222
-1.905,1.087,-0.381,304.138,61.035,158.447
-1.848,0.927,-0.427,327.271,58.777,157.837
-1.770,0.735,-0.490,349.670,57.556,151.550
-1.663,0.515,-0.537,367.737,57.556,143.250
-1.554,0.359,-0.542,379.395,57.983,133.606
-1.402,0.184,-0.483,385.010,59.448,121.582
-1.124,-0.082,-0.490,382.996,58.411,111.023
-1.018,-0.298,-0.508,370.972,46.692,107.117
-1.128,-0.259,-0.436,350.586,33.020,105.530
-1.214,-0.203,-0.421,333.496,33.630,97.107
-1.165,-0.188,-0.417,323.608,52.551,77.332
-1.014,-0.186,-0.376,319.275,81.177,50.415
-0.684,-0.321,-0.299,317.322,112.305,24.109
-0.180,-0.581,-0.241,310.669,137.207,2.747
0.208,-0.769,-0.138,293.579,146.973,-9.949
0.407,-0.786,0.059,267.578,147.766,-16.357
0.601,-0.814,0.184,240.784,155.762,-23.376
0.899,-0.906,0.276,215.149,174.500,-31.860
1.377,-1.018,0.378,187.256,195.557,-37.659
1.902,-1.013,0.498,157.104,211.182,-43.762
2.333,-0.929,0.710,128.784,222.778,-59.753
2.749,-0.841,0.933,105.225,236.145,-87.036
2.962,-0.841,1.123,84.412,248.535,-117.554
3.024,-0.901,1.258,59.814,249.939,-141.602
2.906,-0.832,1.368,27.405,231.384,-152.039
2.608,-0.621,1.403,-8.606,192.444,-150.879
2.269,-0.328,1.322,-43.335,139.343,-141.418
1.828,-0.008,1.191,-72.937,80.627,-123.840
1.335,0.297,1.051,-91.980,27.161,-95.032
0.985,0.485,0.896,-94.849,-9.521,-54.199
0.819,0.517,0.774,-82.153,-31.738,-4.761
0.803,0.383,0.735,-59.265,-44.128,44.861
0.857,0.129,0.747,-32.959,-50.232,83.313
0.915,-0.155,0.747,-9.155,-54.749,105.103
0.945,-0.378,0.760,8.667,-59.998,112.793
0.962,-0.577,0.758,18.982,-66.833,111.084
0.989,-0.754,0.737,19.653,-75.378,105.042
0.942,-0.872,0.704,9.216,-85.571,99.426
0.868,-0.922,0.665,-10.559,-94.299,96.008
0.726,-0.891,0.655,-36.926,-99.182,91.492
0.558,-0.814,0.656,-65.857,-98.511,84.839
0.454,-0.718,0.678,-94.055,-91.797,78.369
0.412,-0.628,0.720,-120.178,-81.604,72.876
0.420,-0.572,0.741,-143.677,-72.083,69.702
0.418,-0.491,0.775,-165.466,-65.247,67.139
0.400,-0.387,0.795,-183.838,-59.875,62.317
0.412,-0.292,0.795,-197.449,-54.932,55.054
0.316,-0.192,0.753,-206.543,-51.880,46.265
0.138,-0.104,0.710,-213.013,-51.575,37.170
-0.001,0.002,0.674,-217.834,-50.720,29.480
-0.120,0.082,0.668,-220.825,-47.241,24.841
-0.195,0.144,0.658,-222.107,-41.321,22.827
-0.196,0.214,0.686,-221.619,-35.400,22.034
-0.140,0.205,0.689,-218.811,-29.785,18.494
-0.085,0.188,0.688,-215.088,-25.879,11.475
-0.095,0.156,0.646,-212.769,-24.475,1.709
-0.214,0.122,0.551,-214.783,-24.719,-9.583
-0.352,0.208,0.465,-222.717,-26.001,-23.560
-0.485,0.385,0.399,-233.887,-26.855,-36.682
-0.570,0.558,0.354,-242.432,-24.719,-44.189
-0.623,0.668,0.344,-245.178,-20.874,-45.837
-0.589,0.751,0.382,-243.164,-16.846,-43.396
-0.517,0.804,0.432,-237.610,-14.465,-39.124
-0.503,0.746,0.434,-229.492,-14.893,-35.522
-0.475,0.679,0.389,-221.680,-18.982,-32.410
-0.514,0.658,0.324,-216.614,-26.123,-31.128
-0.607,0.669,0.205,-214.172,-34.424,-32.959
-0.701,0.732,0.111,-212.585,-42.236,-37.048
-0.867,0.842,0.146,-209.045,-47.607,-41.931
-0.997,0.932,0.202,-200.378,-45.410,-45.593
-1.038,0.995,0.293,-186.829,-35.767,-47.119
-0.966,1.037,0.386,-169.983,-25.024,-47.485
-0.810,1.073,0.455,-152.588,-17.700,-48.584
-0.674,1.048,0.451,-138.245,-18.005,-50.842
-0.697,1.002,0.397,-129.211,-27.344,-51.392
-0.768,0.995,0.359,-124.817,-40.100,-50.415
-0.807,0.985,0.295,-124.023,-49.988,-53.345
-0.841,0.937,0.208,-126.160,-55.481,-60.974
-0.850,0.919,0.140,-131.226,-57.556,-68.726
-0.831,0.981,0.111,-137.390,-57.495,-73.242
-0.786,1.104,0.112,-141.541,-57.556,-74.158
-0.754,1.218,0.133,-140.808,-58.838,-71.106
-0.718,1.296,0.131,-134.949,-62.256,-62.744
-0.711,1.361,0.116,-125.061,-67.749,-51.208
-0.735,1.373,0.095,-112.000,-73.547,-40.649
-0.770,1.293,0.053,-98.267,-77.209,-33.752
-0.776,1.187,0.007,-88.196,-78.674,-29.846
-0.750,1.116,-0.026,-82.764,-79.407,-27.161
-0.749,1.084,-0.069,-80.383,-80.078,-24.719
-0.754,1.072,-0.096,-78.186,-80.688,-22.705
-0.743,1.060,-0.125,-74.768,-79.773,-20.691
-0.730,1.031,-0.155,-70.984,-76.782,-17.212
-0.720,1.032,-0.163,-67.627,-72.937,-11.841
-0.703,1.054,-0.152,-64.270,-68.359,-6.714
-0.677,1.059,-0.141,-60.303,-63.660,-3.601
-0.655,1.076,-0.125,-55.420,-59.570,-0.977
-0.630,1.081,-0.113,-49.438,-56.274,1.770
-0.634,1.069,-0.103,-42.297,-53.711,4.944
-0.626,1.049,-0.093,-34.546,-50.720,8.240
-0.603,1.008,-0.090,-26.733,-47.058,11.780
-0.558,0.974,-0.094,-20.142,-43.640,15.442
-0.551,0.922,-0.096,-15.686,-41.504,18.066
-0.568,0.883,-0.098,-13.428,-39.734,18.860
-0.571,0.857,-0.106,-13.306,-37.048,18.188
-0.576,0.829,-0.117,-15.381,-33.813,16.113
-0.584,0.840,-0.123,-19.531,-30.579,14.099

-1.218,1.402,-0.245,81.421,16.724,12.207
-1.334,1.425,-0.279,100.952,22.461,18.616
-1.475,1.422,-0.324,118.347,28.931,23.315
-1.663,1.437,-0.378,131.409,35.095,26.245
-1.835,1.510,-0.431,140.564,41.260,27.588
-1.997,1.652,-0.466,147.034,47.241,28.320
-2.111,1.826,-0.497,153.992,52.917,31.494
-2.204,1.976,-0.495,164.673,58.594,39.001
-2.259,2.072,-0.506,178.345,64.941,52.490
-2.288,2.149,-0.527,196.106,70.435,75.562
-2.318,2.189,-0.533,218.262,74.097,105.225
-2.292,2.152,-0.546,244.446,77.698,136.353
-2.206,2.056,-0.564,273.804,80.627,166.626
-2.063,1.949,-0.582,307.495,81.482,193.726
-1.867,1.827,-0.614,344.543,79.712,215.088
-1.649,1.666,-0.669,382.996,75.256,228.027
-1.496,1.487,-0.748,421.997,69.275,234.192
-1.388,1.216,-0.845,459.656,65.186,234.009
-1.184,0.870,-0.914,490.295,65.063,227.417
-0.924,0.449,-1.000,509.705,66.711,216.003
-0.771,0.018,-1.057,515.625,65.918,201.416
-0.680,-0.326,-0.985,506.958,65.552,182.617
-0.410,-0.620,-0.922,485.840,70.007,160.522
-0.121,-0.775,-0.825,454.102,72.205,139.954
0.021,-0.623,-0.633,422.058,68.420,123.047
0.022,-0.556,-0.490,401.489,69.946,105.225
0.145,-0.664,-0.411,392.334,87.158,86.548
0.460,-0.841,-0.339,385.071,118.469,70.557
0.893,-1.048,-0.228,372.620,154.724,55.847
1.357,-1.349,-0.146,349.731,188.049,40.833
1.783,-1.645,-0.019,312.378,213.745,27.466
2.100,-1.767,0.223,260.864,232.239,16.052
2.341,-1.750,0.493,203.125,250.061,3.235
2.547,-1.686,0.703,145.447,268.005,-14.526
2.719,-1.590,0.957,92.896,279.358,-36.499
2.883,-1.355,1.164,47.363,277.832,-57.861
2.945,-1.068,1.293,12.268,257.019,-79.163
2.756,-0.795,1.360,-12.512,215.271,-101.868
2.441,-0.523,1.357,-28.198,157.654,-119.263
2.067,-0.281,1.246,-36.621,94.910,-123.535
1.719,-0.153,1.072,-41.931,37.598,-114.563
1.381,-0.123,0.864,-47.241,-7.874,-93.323
1.073,-0.184,0.658,-53.589,-40.955,-62.378
0.844,-0.294,0.498,-63.049,-62.195,-27.405
0.689,-0.360,0.415,-74.829,-73.364,5.310
0.660,-0.419,0.397,-84.778,-75.806,32.898
0.706,-0.493,0.426,-91.187,-73.303,50.903
0.802,-0.545,0.468,-94.482,-69.702,58.350
0.871,-0.545,0.522,-95.581,-68.787,58.716
0.880,-0.521,0.593,-93.811,-71.167,54.871
0.880,-0.489,0.641,-89.905,-74.524,50.171
0.888,-0.488,0.653,-85.571,-79.163,46.265
0.920,-0.540,0.638,-84.290,-86.121,43.945
0.788,-0.562,0.618,-91.125,-94.727,41.626
0.592,-0.527,0.604,-103.699,-99.915,41.260
0.478,-0.520,0.606,-119.263,-97.656,40.649
0.402,-0.501,0.590,-136.841,-89.661,40.894
0.326,-0.480,0.581,-156.250,-79.712,41.504
0.284,-0.451,0.582,-176.147,-70.068,41.321
0.267,-0.439,0.572,-196.838,-61.890,40.161
0.238,-0.430,0.540,-218.140,-56.030,38.940
0.146,-0.412,0.502,-240.417,-51.453,35.828
0.036,-0.330,0.460,-262.817,-46.265,28.992
-0.053,-0.188,0.435,-282.104,-39.551,20.447
-0.115,-0.016,0.416,-294.861,-31.372,11.658
-0.181,0.143,0.422,-299.316,-22.766,2.197
-0.173,0.259,0.453,-296.448,-14.648,-7.263
-0.171,0.256,0.436,-290.100,-9.583,-16.846
-0.220,0.281,0.419,-286.133,-9.155,-25.635
-0.339,0.324,0.380,-286.072,-11.536,-34.790
-0.441,0.443,0.352,-288.513,-13.672,-45.105
-0.557,0.586,0.359,-290.161,-14.160,-54.260
-0.577,0.706,0.384,-287.720,-12.756,-58.960
-0.541,0.786,0.408,-281.982,-12.329,-56.824
-0.529,0.817,0.434,-274.475,-15.076,-51.331
-0.510,0.809,0.453,-266.541,-19.836,-45.288
-0.570,0.751,0.441,-259.827,-26.184,-40.833
-0.609,0.731,0.400,-255.554,-32.837,-39.551
-0.672,0.728,0.339,-253.174,-39.490,-43.884
-0.692,0.786,0.277,-251.526,-46.570,-54.565
-0.706,0.892,0.231,-249.084,-55.237,-67.322
-0.728,1.060,0.224,-243.469,-64.819,-76.172
-0.776,1.168,0.211,-232.971,-72.876,-78.430
-0.828,1.225,0.208,-219.666,-77.576,-73.486
-0.875,1.238,0.235,-204.895,-78.735,-63.904
-0.825,1.206,0.239,-189.819,-76.233,-54.077
-0.757,1.159,0.199,-175.598,-74.402,-46.265
-0.727,1.104,0.168,-163.147,-76.050,-40.894
-0.756,1.049,0.109,-153.748,-80.261,-38.025
-0.828,0.994,0.037,-147.705,-85.815,-35.889
-0.917,0.973,-0.017,-143.982,-90.027,-34.058
-0.982,0.970,-0.048,-141.846,-89.783,-36.072
-0.964,0.994,-0.076,-139.832,-84.900,-42.908
-0.927,1.041,-0.066,-137.329,-78.369,-51.331
-0.902,1.106,-0.048,-134.644,-71.655,-56.213
-0.866,1.210,-0.032,-131.348,-64.880,-54.749
-0.893,1.276,-0.014,-126.709,-58.167,-48.523
-0.900,1.327,-0.004,-120.117,-52.246,-41.016
-0.856,1.347,-0.009,-110.901,-47.913,-34.973
-0.828,1.338,-0.020,-99.609,-47.119,-29.602
-0.796,1.330,-0.040,-87.646,-48.828,-24.475
-0.780,1.320,-0.087,-74.951,-51.514,-18.677
-0.831,1.307,-0.105,-60.852,-53.101,-13.611
-0.843,1.267,-0.145,-46.204,-49.988,-9.705
-0.833,1.193,-0.184,-31.860,-42.297,-6.653
-0.819,1.108,-0.202,-20.020,-32.532,-4.211
-0.753,1.013,-0.203,-12.390,-22.278,-1.648
-0.669,0.940,-0.206,-10.437,-13.733,2.563
-0.592,0.927,-0.177,-13.794,-9.094,8.545
-0.542,0.937,-0.168,-20.142,-8.057,14.832
-0.557,0.965,-0.158,-26.550,-10.071,21.301
-0.575,1.002,-0.126,-30.518,-11.658,25.452
-0.561,1.010,-0.123,-31.250,-11.536,25.574
-0.543,1.007,-0.121,-30.273,-11.597,23.804
-0.550,1.006,-0.118,-27.527,-12.268,22.034
-0.530,1.014,-0.126,-23.315,-12.207,20.691
-0.517,1.016,-0.130,-18.311,-12.390,19.226
-0.533,0.996,-0.126,-12.695,-13.184,18.127
-0.541,0.960,-0.130,-7.080,-13.611,17.212

-1.212,1.285,-0.221,88.745,26.794,9.705
-1.340,1.348,-0.233,102.539,33.386,12.634
-1.475,1.401,-0.262,115.540,39.124,16.846
-1.583,1.470,-0.292,125.793,42.603,23.621
-1.673,1.580,-0.310,132.874,43.030,31.616
-1.756,1.692,-0.312,137.390,42.542,39.734
-1.858,1.773,-0.297,140.442,44.067,49.561
-1.933,1.872,-0.304,145.386,49.805,64.270
-1.969,1.983,-0.313,156.128,57.739,83.374
-1.979,2.062,-0.330,175.354,65.063,104.187
-1.996,2.041,-0.358,203.674,69.763,122.742
-1.923,1.931,-0.387,236.267,71.289,139.282
-1.798,1.816,-0.389,269.409,68.726,155.945
-1.589,1.661,-0.377,302.124,62.683,173.767
-1.349,1.445,-0.428,331.238,51.025,194.031
-1.283,1.266,-0.452,353.333,31.799,216.736
-1.321,1.118,-0.472,370.117,11.536,237.122
-1.328,0.967,-0.521,384.277,-2.258,248.291
-1.303,0.812,-0.567,397.705,-10.132,249.878
-1.258,0.655,-0.612,410.767,-13.733,243.347
-1.178,0.492,-0.663,423.706,-12.756,231.506
-1.097,0.305,-0.710,435.059,-7.935,215.881
-1.031,0.083,-0.760,442.932,1.709,197.693
-0.958,-0.164,-0.791,444.580,17.029,177.979
-0.696,-0.520,-0.772,437.134,35.339,157.349
-0.420,-0.929,-0.781,415.161,49.683,138.794
-0.300,-1.106,-0.645,378.357,56.213,125.122
-0.246,-1.168,-0.443,333.008,66.345,112.793
-0.050,-1.214,-0.235,285.156,90.027,97.351
0.291,-1.271,-0.042,238.220,122.864,80.444
0.676,-1.209,0.181,194.336,155.945,63.721
1.098,-1.107,0.410,159.485,184.998,43.030
1.563,-1.049,0.602,135.925,207.703,15.991
2.036,-1.034,0.806,122.131,223.328,-13.184
2.439,-1.030,1.020,113.892,235.657,-40.161
2.715,-1.094,1.206,106.628,246.460,-62.805
2.870,-1.209,1.354,94.116,252.136,-81.360
2.865,-1.321,1.445,70.496,246.277,-96.130
2.720,-1.307,1.487,35.339,223.328,-108.704
2.559,-1.206,1.439,-6.653,185.181,-120.544
2.266,-0.967,1.332,-52.856,135.376,-129.028
1.893,-0.668,1.166,-96.985,83.679,-130.920
1.504,-0.379,0.965,-133.606,38.025,-124.451
1.142,-0.087,0.802,-158.447,3.418,-105.530
0.904,0.155,0.719,-168.213,-18.066,-74.890
0.790,0.270,0.668,-162.598,-27.954,-39.368
0.775,0.238,0.648,-145.386,-30.579,-7.446
0.842,0.107,0.677,-123.657,-32.043,17.273
0.930,-0.062,0.708,-102.539,-36.011,33.813
0.997,-0.232,0.717,-86.121,-44.861,44.006
0.995,-0.343,0.719,-76.294,-58.960,51.392
0.877,-0.376,0.717,-72.205,-74.158,56.213
0.707,-0.354,0.689,-71.350,-83.923,57.861
0.556,-0.344,0.661,-71.289,-86.609,54.871
0.442,-0.344,0.652,-72.449,-83.252,49.683
0.377,-0.349,0.660,-76.660,-76.233,42.542
0.363,-0.392,0.672,-84.290,-67.932,35.217
0.386,-0.467,0.656,-97.229,-61.401,29.785
0.350,-0.495,0.646,-116.150,-59.082,26.917
0.265,-0.455,0.650,-139.709,-59.937,25.513
0.141,-0.364,0.654,-164.490,-58.838,23.437
0.034,-0.267,0.621,-186.646,-53.650,17.883
-0.074,-0.174,0.555,-205.444,-45.532,8.301
-0.163,-0.082,0.501,-220.520,-36.560,-1.892
-0.231,0.024,0.465,-233.215,-26.550,-10.864
-0.217,0.141,0.445,-243.530,-15.503,-20.081
-0.179,0.262,0.456,-250.977,-5.920,-27.588
-0.154,0.343,0.480,-254.211,0.061,-32.593
-0.175,0.378,0.522,-254.272,3.174,-36.072
-0.221,0.381,0.537,-253.174,4.456,-40.955
-0.249,0.411,0.516,-253.418,3.845,-48.157
-0.332,0.501,0.462,-255.005,0.488,-56.885
-0.491,0.653,0.379,-254.700,-5.066,-66.772
-0.611,0.813,0.323,-249.634,-10.620,-75.623
-0.648,0.961,0.308,-237.244,-13.428,-80.505
-0.658,1.037,0.396,-218.201,-13.794,-82.275
-0.623,1.060,0.504,-196.655,-13.428,-81.787
-0.543,1.040,0.587,-175.049,-15.747,-78.552
-0.542,0.992,0.663,-156.433,-22.400,-74.280
-0.549,0.934,0.703,-142.456,-30.457,-71.594
-0.576,0.898,0.686,-133.667,-37.781,-72.327
-0.634,0.861,0.623,-130.432,-45.349,-76.294
-0.687,0.801,0.498,-131.836,-53.467,-81.970
-0.715,0.814,0.367,-138.245,-62.439,-87.524
-0.766,0.909,0.276,-147.156,-70.618,-92.773
-0.855,1.005,0.225,-154.480,-74.585,-97.839
-0.876,1.089,0.201,-157.959,-72.876,-100.281
-0.867,1.153,0.201,-157.532,-67.688,-99.670
-0.829,1.180,0.193,-153.442,-61.646,-96.313
-0.772,1.195,0.185,-147.156,-57.251,-89.600
-0.736,1.202,0.163,-140.137,-55.969,-80.322
-0.739,1.209,0.134,-132.690,-57.678,-70.190
-0.780,1.211,0.094,-124.451,-61.096,-60.974
-0.837,1.187,0.042,-116.089,-62.927,-54.688
-0.872,1.154,-0.009,-108.521,-62.134,-50.598
-0.883,1.162,-0.044,-102.844,-58.655,-49.072
-0.910,1.165,-0.054,-97.961,-52.429,-50.049
-0.886,1.158,-0.048,-94.116,-44.006,-50.659
-0.814,1.171,-0.027,-90.698,-35.828,-47.913
-0.746,1.190,-0.003,-87.769,-30.334,-43.274
-0.687,1.185,0.023,-84.900,-27.771,-37.659
-0.645,1.173,0.021,-82.397,-28.198,-31.738
-0.654,1.155,0.013,-81.299,-30.701,-26.489
-0.654,1.148,-0.000,-81.482,-32.715,-22.949
-0.632,1.143,-0.036,-81.848,-33.386,-20.203
-0.618,1.174,-0.062,-81.604,-33.691,-17.944
-0.641,1.197,-0.086,-79.102,-33.386,-16.174
-0.657,1.209,-0.067,-73.425,-30.945,-13.794
-0.626,1.183,-0.068,-65.491,-26.611,-9.705
-0.572,1.156,-0.071,-57.190,-22.278,-3.845
-0.520,1.119,-0.079,-49.622,-19.958,3.601
-0.490,1.083,-0.081,-43.030,-19.409,10.071
-0.476,0.999,-0.089,-37.720,-19.897,13.611
-0.485,0.913,-0.111,-36.194,-20.691,14.832
-0.500,0.870,-0.119,-38.208,-21.179,14.893
-0.524,0.875,-0.114,-42.786,-20.569,13.367
-0.530,0.900,-0.108,-46.936,-18.494,11.475
-0.525,0.938,-0.099,-48.645,-16.113,10.864
-0.515,0.949,-0.099,-47.485,-14.160,12.024

-1.134,1.190,-0.347,62.500,31.128,-3.540
-1.195,1.270,-0.365,67.993,35.706,-4.211
-1.251,1.360,-0.393,73.059,40.833,-4.517
-1.350,1.484,-0.438,79.041,44.983,-2.747
-1.540,1.624,-0.472,86.670,49.438,3.906
-1.690,1.740,-0.503,97.961,56.335,14.893
-1.785,1.830,-0.543,112.183,64.514,27.405
-1.784,1.885,-0.551,129.333,71.899,41.138
-1.746,1.915,-0.538,148.743,77.209,56.091
-1.701,1.914,-0.521,170.227,80.933,71.533
-1.679,1.932,-0.493,194.031,83.557,85.388
-1.661,1.927,-0.469,220.398,86.182,95.581
-1.596,1.823,-0.503,248.169,87.646,103.271
-1.499,1.729,-0.506,275.024,84.595,111.938
-1.370,1.679,-0.465,300.049,77.515,120.117
-1.301,1.630,-0.428,326.294,70.190,124.878
-1.287,1.507,-0.417,354.248,66.345,126.526
-1.292,1.337,-0.460,381.042,66.833,128.174
-1.310,1.190,-0.515,404.358,69.824,132.141
-1.217,0.998,-0.566,422.913,73.303,136.658
-1.037,0.813,-0.550,434.631,72.693,140.747
-0.863,0.608,-0.508,440.552,64.331,143.982
-0.726,0.390,-0.430,442.444,48.218,144.470
-0.567,0.090,-0.407,439.697,28.137,141.968
-0.481,-0.185,-0.385,431.091,6.042,137.939
-0.478,-0.393,-0.350,416.870,-11.414,132.019
-0.466,-0.572,-0.315,399.963,-17.273,123.047
-0.389,-0.712,-0.302,382.324,-7.568,109.131
-0.162,-0.818,-0.239,364.380,13.794,90.149
0.096,-0.965,-0.143,345.703,40.405,67.993
0.418,-1.119,-0.040,325.073,70.129,46.997
0.742,-1.325,0.111,300.537,100.403,28.931
1.131,-1.593,0.267,269.409,129.456,13.733
1.594,-1.856,0.381,229.797,154.785,0.061
1.990,-2.023,0.500,179.443,170.471,-16.724
2.207,-2.055,0.638,122.742,179.504,-40.527
2.414,-1.922,0.745,65.125,187.012,-69.275
2.534,-1.668,0.812,10.437,194.458,-102.112
2.499,-1.349,0.836,-36.987,197.449,-133.667
2.383,-0.945,0.841,-76.965,192.017,-156.128
2.146,-0.499,0.886,-105.652,176.636,-163.940
1.896,-0.078,0.914,-120.789,153.870,-154.968
1.670,0.246,0.950,-120.483,125.061,-130.127
1.428,0.409,0.973,-107.239,90.820,-94.971
1.216,0.414,0.958,-85.754,54.810,-55.359
1.065,0.342,0.935,-61.340,21.118,-19.104
0.924,0.261,0.903,-36.133,-8.118,9.155
0.826,0.115,0.861,-11.108,-30.701,30.579
0.785,-0.084,0.820,11.047,-46.509,46.143
0.778,-0.307,0.771,27.527,-57.190,55.664
0.758,-0.508,0.740,34.668,-66.040,59.082
0.760,-0.683,0.729,30.640,-73.669,58.655
0.802,-0.833,0.717,15.930,-80.505,57.251
0.818,-0.899,0.694,-7.935,-87.341,56.335
0.762,-0.861,0.665,-37.598,-92.468,53.772
0.634,-0.755,0.657,-68.542,-93.323,48.096
0.519,-0.639,0.633,-97.412,-87.463,40.894
0.497,-0.533,0.594,-123.169,-77.820,35.095
0.456,-0.401,0.610,-145.630,-69.946,32.532
0.422,-0.276,0.627,-164.368,-63.965,33.936
0.368,-0.150,0.652,-177.246,-60.486,37.415
0.323,-0.035,0.700,-182.861,-56.824,39.917
0.348,-0.080,0.724,-182.678,-52.368,38.391
0.328,-0.071,0.736,-182.739,-48.889,34.546
0.261,-0.061,0.721,-185.181,-46.814,28.687
0.180,-0.042,0.702,-190.430,-44.861,20.691
0.052,-0.001,0.660,-198.914,-41.687,12.939
-0.104,0.066,0.589,-210.388,-36.560,6.470
-0.209,0.171,0.533,-223.633,-30.090,1.587
-0.261,0.304,0.507,-236.023,-21.729,-0.427
-0.268,0.399,0.515,-243.958,-12.085,-2.014
-0.239,0.443,0.527,-247.742,-3.357,-5.188
-0.169,0.458,0.560,-249.146,2.930,-10.681
-0.160,0.432,0.571,-251.221,4.700,-15.808
-0.192,0.467,0.571,-256.042,1.343,-19.592
-0.339,0.530,0.548,-263.062,-4.028,-25.330
-0.497,0.569,0.467,-271.118,-7.874,-33.752
-0.631,0.626,0.379,-280.334,-10.071,-41.504
-0.733,0.730,0.280,-289.795,-10.620,-47.913
-0.820,0.835,0.240,-296.570,-9.766,-53.406
-0.817,0.919,0.248,-299.316,-7.019,-57.312
-0.789,0.944,0.272,-299.683,-4.822,-58.960
-0.698,1.011,0.292,-300.415,-4.822,-57.373
-0.610,1.092,0.280,-300.781,-8.118,-53.040
-0.603,1.157,0.238,-299.072,-15.320,-47.424
-0.637,1.243,0.192,-293.701,-23.499,-42.419
-0.681,1.306,0.142,-282.471,-30.090,-39.795
-0.752,1.302,0.095,-265.808,-34.546,-40.344
-0.815,1.237,0.065,-246.338,-37.048,-42.542
-0.781,1.224,0.060,-228.271,-38.818,-43.640
-0.724,1.290,0.064,-211.426,-42.175,-42.419
-0.690,1.370,0.060,-192.871,-47.729,-38.452
-0.681,1.463,0.066,-172.363,-52.307,-33.813
-0.705,1.466,0.051,-149.658,-53.650,-29.785
-0.692,1.401,0.023,-126.404,-52.124,-25.757
-0.661,1.313,-0.002,-104.797,-50.171,-22.400
-0.653,1.179,-0.042,-86.792,-50.049,-20.081
-0.641,1.058,-0.091,-74.707,-51.208,-16.846
-0.676,0.998,-0.123,-67.932,-53.467,-12.390
-0.728,0.988,-0.136,-64.941,-54.260,-9.338
-0.748,0.999,-0.149,-63.599,-52.002,-9.277
-0.737,1.006,-0.163,-62.439,-47.485,-11.719
-0.741,1.015,-0.158,-61.096,-43.335,-15.015
-0.704,1.053,-0.149,-59.204,-40.100,-18.127
-0.706,1.095,-0.141,-55.115,-38.940,-19.775
-0.724,1.139,-0.125,-48.218,-39.124,-19.592
-0.746,1.120,-0.119,-38.879,-38.818,-17.639
-0.740,1.081,-0.133,-29.480,-37.476,-13.123
-0.730,1.042,-0.147,-21.790,-35.156,-7.446
-0.703,1.010,-0.164,-16.602,-32.104,-3.784
-0.686,0.974,-0.181,-14.893,-28.992,-1.648
-0.668,0.954,-0.199,-15.930,-26.794,-0.061
-0.658,0.968,-0.186,-17.822,-25.513,1.587
-0.619,0.990,-0.177,-18.616,-25.085,3.845
-0.599,1.011,-0.180,-17.334,-26.917,8.179
-0.631,1.029,-0.154,-13.428,-30.212,13.306
-0.663,0.989,-0.153,-8.545,-31.433,17.578
-0.677,0.929,-0.162,-4.700,-29.663,21.729
-0.680,0.872,-0.166,-3.723,-26.184,25.085

-1.214,1.099,-0.425,62.988,26.245,3.967
-1.324,1.162,-0.448,70.679,31.067,6.470
-1.445,1.242,-0.474,78.369,34.973,11.353
-1.536,1.332,-0.509,87.341,37.720,17.822
-1.673,1.459,-0.563,97.839,38.025,26.123
-1.824,1.570,-0.597,110.779,37.109,37.537
-1.956,1.671,-0.627,126.648,36.438,53.894
-2.055,1.749,-0.644,145.264,36.926,74.646
-2.120,1.807,-0.648,166.931,39.307,97.290
-2.132,1.954,-0.654,192.810,41.077,120.605
-2.145,2.038,-0.663,226.562,41.321,142.273
-2.052,2.020,-0.698,267.883,40.344,162.781
-1.920,1.949,-0.666,314.148,38.757,183.289
-1.751,1.762,-0.627,357.910,39.001,201.843
-1.519,1.489,-0.657,393.433,37.415,218.628
-1.360,1.283,-0.644,417.664,27.222,234.375
-1.294,1.225,-0.614,435.425,11.536,246.216
-1.266,1.128,-0.633,453.491,-2.136,251.465
-1.232,1.043,-0.658,473.816,-9.399,251.648
-1.158,0.989,-0.706,496.887,-8.057,249.207
-1.080,0.776,-0.778,523.437,2.014,244.019
-0.969,0.427,-0.853,548.035,20.203,234.375
-0.751,-0.044,-0.811,562.500,43.518,219.788
-0.311,-0.708,-0.719,556.152,66.528,200.562
0.103,-1.447,-0.604,519.165,78.918,179.504
0.256,-1.894,-0.356,449.219,78.247,161.560
0.228,-1.886,-0.062,358.215,80.139,145.630
0.308,-1.717,0.136,267.639,101.257,127.319
0.543,-1.471,0.294,190.857,138.245,105.286
0.895,-1.273,0.471,132.812,181.946,75.989
1.301,-1.130,0.647,92.163,222.778,38.879
1.742,-1.105,0.769,62.622,250.549,0.305
2.168,-1.078,0.893,37.415,259.766,-31.006
2.305,-1.013,1.065,11.658,251.343,-56.396
2.484,-0.849,1.165,-12.756,235.718,-75.439
2.577,-0.576,1.252,-33.997,212.830,-88.196
2.390,-0.262,1.366,-45.959,183.350,-96.741
2.156,-0.060,1.349,-47.119,153.748,-101.990
1.933,0.080,1.255,-42.664,121.399,-102.844
1.700,0.194,1.135,-36.377,85.571,-97.351
1.461,0.220,1.015,-29.846,49.377,-84.412
1.282,0.184,0.854,-25.391,18.066,-63.354
1.087,0.151,0.724,-23.865,-8.301,-36.682
0.924,0.102,0.636,-25.269,-28.198,-10.376
0.885,0.040,0.562,-28.320,-39.612,11.536
0.915,0.015,0.515,-31.616,-46.692,28.809
0.843,-0.021,0.501,-32.593,-53.162,40.955
0.749,-0.094,0.502,-31.372,-57.739,47.363
0.676,-0.184,0.515,-29.602,-60.364,50.476
0.607,-0.278,0.545,-29.846,-62.378,51.880
0.523,-0.373,0.576,-33.142,-64.026,52.490
0.455,-0.429,0.616,-39.734,-64.331,51.270
0.374,-0.440,0.641,-49.561,-62.866,47.119
0.282,-0.436,0.672,-60.913,-60.181,40.283
0.230,-0.392,0.706,-72.815,-56.091,32.593
0.196,-0.321,0.718,-84.351,-51.453,24.414
0.137,-0.293,0.761,-95.642,-47.729,16.602
0.099,-0.280,0.787,-107.239,-44.861,14.893
0.057,-0.241,0.826,-118.713,-44.067,19.226
0.039,-0.189,0.887,-127.563,-45.166,24.658
0.040,-0.158,0.936,-132.019,-46.509,27.405
0.044,-0.169,0.937,-132.568,-46.997,25.879
-0.006,-0.207,0.908,-132.385,-46.997,19.409
-0.081,-0.243,0.843,-135.010,-45.593,10.742
-0.192,-0.272,0.782,-142.090,-41.504,1.099
-0.299,-0.300,0.756,-154.480,-34.973,-7.874
-0.320,-0.281,0.732,-171.509,-25.879,-16.541
-0.347,-0.224,0.777,-191.223,-15.930,-24.292
-0.307,-0.159,0.791,-209.900,-7.446,-30.334
-0.236,-0.063,0.870,-224.487,-2.502,-35.156
-0.214,-0.025,0.894,-234.863,-0.488,-41.992
-0.222,0.047,0.878,-243.347,-1.038,-51.453
-0.308,0.152,0.807,-250.244,-4.578,-62.744
-0.386,0.334,0.744,-253.601,-7.874,-75.378
-0.428,0.546,0.702,-252.991,-9.460,-88.074
-0.524,0.729,0.677,-246.460,-10.803,-97.351
-0.572,0.797,0.658,-235.596,-12.268,-100.830
-0.592,0.811,0.636,-224.304,-14.526,-97.717
-0.611,0.794,0.634,-215.820,-17.334,-91.431
-0.625,0.763,0.614,-211.365,-19.165,-85.999
-0.649,0.740,0.558,-210.876,-20.081,-83.008
-0.664,0.779,0.511,-210.327,-21.057,-83.313
-0.694,0.801,0.455,-208.252,-22.034,-88.257
-0.720,0.858,0.379,-205.688,-24.109,-95.947
-0.763,0.941,0.330,-204.041,-27.039,-102.295
-0.776,1.008,0.289,-202.454,-28.381,-103.699
-0.789,1.036,0.254,-201.721,-26.550,-101.013
-0.741,1.089,0.230,-202.209,-22.339,-96.130
-0.690,1.133,0.221,-201.904,-17.334,-90.149
-0.653,1.161,0.210,-198.853,-13.489,-83.618
-0.664,1.245,0.212,-191.589,-11.658,-76.416
-0.689,1.280,0.204,-178.711,-12.329,-70.740
-0.696,1.238,0.172,-161.316,-14.587,-67.688
-0.728,1.142,0.113,-143.860,-18.188,-66.162
-0.782,1.071,0.077,-131.714,-22.583,-64.941
-0.794,1.075,0.064,-124.817,-25.696,-63.049
-0.797,1.098,0.068,-120.544,-26.428,-62.012
-0.772,1.139,0.070,-117.371,-24.597,-61.829
-0.740,1.141,0.059,-112.854,-22.461,-60.120
-0.714,1.148,0.066,-106.750,-21.301,-56.580
-0.679,1.145,0.056,-99.915,-20.752,-53.406
-0.665,1.110,0.042,-92.896,-21.118,-49.988
-0.643,1.060,0.019,-86.853,-23.315,-44.067
-0.652,1.047,-0.005,-82.703,-26.550,-36.316
-0.670,1.074,-0.012,-79.529,-29.175,-29.297
-0.688,1.120,-0.002,-75.073,-30.457,-24.719
-0.696,1.159,0.027,-68.420,-30.212,-22.034
-0.667,1.186,0.050,-59.937,-29.358,-19.592
-0.647,1.188,0.061,-50.720,-29.724,-16.724
-0.648,1.189,0.058,-41.687,-30.701,-13.306
-0.652,1.181,0.051,-32.410,-31.006,-9.399
-0.638,1.134,0.034,-23.743,-29.541,-6.592
-0.586,1.094,0.019,-17.090,-28.137,-4.456
-0.573,1.045,0.012,-13.672,-28.015,-1.648
-0.577,1.015,0.008,-13.733,-28.320,2.136
-0.592,1.022,0.007,-15.625,-27.893,6.042
-0.600,1.034,0.007,-16.968,-25.269,8.850
-0.570,1.044,0.010,-15.198,-21.606,10.925
-0.526,1.038,0.002,-10.376,-18.738,12.634

-1.431,1.317,-0.040,73.792,20.264,44.739
-1.564,1.375,-0.049,78.674,25.330,52.307
-1.708,1.453,-0.050,84.961,28.259,60.181
-1.833,1.519,-0.042,93.689,30.701,67.078
-1.912,1.609,-0.039,104.675,33.630,73.425
-1.929,1.741,-0.015,117.126,35.889,80.200
-1.904,1.855,0.003,132.385,36.682,88.257
-2.000,1.929,-0.007,148.560,35.889,97.351
-2.159,1.963,-0.047,163.635,33.691,108.887
-2.225,1.944,-0.085,176.941,31.006,123.535
-2.228,1.908,-0.116,188.538,29.358,141.724
-2.114,1.856,-0.139,198.486,26.733,160.522
-1.952,1.834,-0.154,209.961,22.644,179.138
-1.858,1.819,-0.182,227.600,18.127,197.876
-1.729,1.768,-0.232,253.052,15.442,214.294
-1.579,1.635,-0.311,287.109,13.672,225.403
-1.448,1.387,-0.395,325.562,12.695,229.675
-1.302,1.062,-0.444,361.389,14.038,227.051
-1.052,0.637,-0.482,388.794,16.663,218.689
-0.802,0.181,-0.620,403.931,13.184,207.092
-0.804,-0.139,-0.745,405.029,-0.549,192.566
-0.925,-0.298,-0.833,397.705,-15.747,175.171
-0.984,-0.430,-1.009,390.869,-19.714,155.518
-1.050,-0.595,-1.157,387.817,-10.071,134.277
-1.062,-0.761,-1.223,385.071,12.634,112.610
-0.920,-0.980,-1.198,378.235,50.049,87.585
-0.522,-1.246,-1.097,361.267,93.750,60.852
-0.031,-1.458,-0.866,329.773,134.521,37.903
0.484,-1.549,-0.516,285.645,170.166,19.714
1.045,-1.568,-0.135,238.403,206.299,-0.061
1.639,-1.600,0.194,191.223,241.577,-26.062
2.228,-1.624,0.462,143.982,271.057,-54.260
2.782,-1.585,0.714,98.450,294.861,-80.933
3.120,-1.442,1.047,55.847,312.134,-107.056
3.473,-1.238,1.303,20.447,325.867,-132.935
3.753,-1.021,1.508,-7.263,324.402,-154.968
3.563,-0.726,1.686,-28.931,295.593,-170.593
3.187,-0.443,1.766,-43.518,243.347,-176.819
2.819,-0.240,1.648,-55.542,173.096,-172.302
2.293,0.027,1.452,-69.824,93.567,-154.663
1.653,0.265,1.233,-83.435,22.705,-121.094
1.165,0.434,1.006,-91.614,-23.560,-71.899
0.997,0.473,0.850,-92.712,-46.875,-13.123
1.052,0.327,0.811,-87.646,-56.824,43.701
1.174,0.061,0.818,-79.041,-62.622,87.036
1.299,-0.218,0.818,-71.228,-70.984,112.488
1.405,-0.416,0.824,-66.284,-82.825,122.925
1.475,-0.561,0.791,-64.636,-97.290,122.742
1.443,-0.572,0.747,-65.735,-112.793,115.662
1.354,-0.532,0.658,-66.528,-126.953,106.995
1.126,-0.493,0.569,-65.002,-138.245,100.220
0.862,-0.487,0.496,-63.232,-143.250,96.558
0.574,-0.523,0.410,-64.209,-138.550,94.177
0.329,-0.566,0.390,-71.228,-125.305,89.417
0.157,-0.587,0.385,-84.839,-103.455,80.139
0.026,-0.588,0.363,-103.760,-78.430,68.054
-0.067,-0.554,0.343,-126.709,-55.908,57.434
-0.129,-0.484,0.346,-151.550,-37.781,50.110
-0.177,-0.366,0.354,-174.805,-23.682,43.457
-0.283,-0.153,0.376,-191.650,-12.146,33.447
-0.382,0.069,0.410,-197.144,-2.869,19.104
-0.481,0.189,0.470,-191.101,6.226,4.578
-0.582,0.225,0.508,-181.641,15.320,-7.629
-0.622,0.240,0.538,-175.110,22.949,-17.090
-0.623,0.251,0.613,-172.241,27.893,-23.499
-0.565,0.216,0.669,-172.668,31.189,-28.625
-0.467,0.187,0.684,-176.392,32.654,-33.752
-0.452,0.193,0.708,-183.167,29.419,-38.879
-0.476,0.244,0.725,-191.162,25.024,-45.532
-0.556,0.318,0.710,-199.646,22.034,-57.190
-0.671,0.448,0.653,-207.764,18.494,-74.524
-0.776,0.668,0.599,-213.928,12.451,-90.576
-0.842,0.907,0.590,-214.172,5.920,-98.633
-0.868,1.047,0.620,-206.848,1.648,-98.267
-0.803,1.097,0.696,-195.007,0.610,-93.262
-0.677,1.033,0.745,-184.204,0.488,-86.670
-0.563,0.928,0.728,-179.504,-3.601,-77.637
-0.540,0.883,0.693,-182.861,-14.404,-63.171
-0.520,1.000,0.667,-190.125,-28.503,-47.974
-0.621,1.159,0.608,-192.200,-43.213,-39.063
-0.780,1.243,0.525,-182.739,-55.847,-38.818
-0.906,1.207,0.448,-164.978,-65.002,-43.823
-0.995,1.094,0.391,-146.179,-70.129,-47.180
-0.970,1.021,0.345,-132.324,-71.167,-45.654
-0.945,0.915,0.310,-126.099,-70.923,-42.908
-0.930,0.816,0.275,-127.625,-70.496,-40.833
-0.863,0.801,0.239,-136.169,-70.557,-39.856
-0.831,0.869,0.198,-147.339,-72.388,-41.260
-0.883,0.940,0.179,-156.921,-74.646,-45.166
-0.915,0.993,0.145,-162.659,-73.608,-47.852
-0.920,1.032,0.104,-164.062,-69.458,-46.265
-0.948,1.055,0.118,-162.476,-64.026,-40.527
-0.903,1.108,0.142,-157.532,-56.580,-33.447
-0.836,1.119,0.170,-149.536,-49.927,-28.992
-0.795,1.090,0.188,-138.855,-46.448,-26.306
-0.812,1.045,0.199,-126.892,-45.349,-23.560
-0.852,1.006,0.201,-114.807,-43.457,-22.949
-0.839,0.955,0.184,-103.699,-39.001,-25.146
-0.773,0.932,0.156,-94.055,-33.752,-28.809
-0.735,0.867,0.122,-86.182,-31.128,-30.151
-0.693,0.839,0.096,-80.750,-31.189,-26.794
-0.681,0.823,0.068,-77.393,-32.410,-20.630
-0.688,0.814,0.046,-75.439,-33.325,-15.015
-0.693,0.816,0.037,-73.669,-32.043,-12.146
-0.659,0.824,0.021,-71.472,-28.564,-11.963
-0.613,0.847,0.011,-68.176,-25.085,-13.062
-0.561,0.923,-0.000,-63.904,-23.132,-15.686
-0.567,0.974,-0.012,-57.312,-23.132,-17.883
-0.591,0.988,-0.018,-48.828,-23.193,-17.761
-0.576,0.964,-0.042,-40.955,-22.339,-14.404
-0.565,0.922,-0.062,-36.377,-22.583,-9.216
-0.558,0.892,-0.068,-35.767,-24.048,-5.249
-0.559,0.878,-0.083,-37.720,-25.574,-4.028
-0.568,0.886,-0.105,-41.382,-26.245,-4.333
-0.569,0.940,-0.129,-45.166,-25.696,-5.371
-0.560,1.041,-0.147,-46.509,-23.743,-6.958
-0.538,1.153,-0.155,-42.419,-21.118,-7.507
-0.513,1.194,-0.151,-32.715,-18.555,-5.798
-0.518,1.171,-0.147,-20.813,-17.273,-1.221

-1.323,1.055,-0.330,34.058,32.959,6.836
-1.443,1.124,-0.352,40.283,38.757,9.460
-1.564,1.238,-0.356,47.058,42.603,12.085
-1.654,1.382,-0.366,55.420,44.800,14.160
-1.787,1.528,-0.379,64.941,46.814,17.151
-1.922,1.648,-0.404,77.087,48.950,22.766
-2.035,1.708,-0.414,91.003,50.842,31.738
-2.088,1.783,-0.437,105.774,53.345,46.326
-2.118,1.824,-0.451,122.375,55.481,62.927
-2.183,1.835,-0.455,140.747,57.800,78.796
-2.167,1.836,-0.465,162.964,59.937,93.262
-2.156,1.814,-0.473,189.636,60.364,107.117
-2.066,1.767,-0.484,220.459,59.448,121.216
-1.911,1.701,-0.488,254.150,58.289,133.911
-1.718,1.603,-0.487,290.161,57.007,144.897
-1.526,1.450,-0.486,326.172,56.274,153.320
-1.352,1.286,-0.504,358.704,56.335,158.630
-1.237,1.178,-0.530,386.658,54.993,160.583
-1.126,1.136,-0.534,414.490,52.490,159.546
-1.012,1.108,-0.544,445.984,50.903,154.785
-0.868,1.034,-0.584,481.628,52.673,145.752
-0.707,0.867,-0.644,518.250,58.594,134.155
-0.495,0.616,-0.695,552.368,67.444,122.681
-0.187,0.299,-0.750,578.918,74.890,111.328
0.058,-0.091,-0.773,592.529,75.073,100.952
0.269,-0.396,-0.728,589.539,67.688,93.384
0.341,-0.678,-0.650,571.777,56.763,88.867
0.261,-0.943,-0.515,538.757,52.307,87.036
0.332,-1.139,-0.384,494.141,64.697,86.609
0.532,-1.369,-0.225,438.477,91.492,84.229
0.885,-1.555,-0.054,373.535,124.451,78.125
1.238,-1.621,0.119,303.162,154.602,64.392
1.490,-1.591,0.344,233.337,180.054,42.480
1.708,-1.470,0.561,169.678,204.651,16.296
1.908,-1.383,0.728,114.990,225.891,-9.766
2.016,-1.290,0.891,69.946,237.671,-32.898
2.153,-1.167,1.040,32.166,236.755,-53.040
2.247,-1.030,1.164,1.770,220.764,-70.923
2.204,-0.867,1.220,-21.057,189.026,-84.900
2.024,-0.749,1.217,-41.138,145.569,-95.825
1.713,-0.582,1.111,-61.218,98.511,-101.624
1.358,-0.414,0.975,-82.275,56.213,-100.647
1.013,-0.233,0.837,-101.685,24.963,-91.064
0.793,-0.064,0.726,-115.295,5.371,-72.205
0.615,0.053,0.680,-119.995,-4.761,-46.875
0.577,0.062,0.667,-115.540,-9.155,-20.630
0.659,-0.035,0.672,-106.140,-12.817,1.465
0.706,-0.160,0.673,-96.069,-20.813,17.151
0.700,-0.282,0.684,-87.463,-32.959,27.527
0.677,-0.373,0.690,-80.872,-44.983,33.630
0.660,-0.448,0.671,-76.965,-53.894,34.668
0.634,-0.509,0.634,-76.660,-59.509,32.349
0.586,-0.555,0.610,-81.116,-63.110,29.297
0.538,-0.584,0.591,-90.088,-64.331,27.100
0.501,-0.594,0.552,-103.210,-63.049,25.940
0.421,-0.548,0.547,-119.202,-61.340,24.109
0.365,-0.429,0.574,-134.949,-58.533,21.545
0.329,-0.313,0.618,-146.606,-54.749,20.081
0.320,-0.228,0.676,-152.344,-51.331,20.264
0.346,-0.175,0.722,-153.442,-49.622,21.301
0.356,-0.160,0.742,-152.039,-50.293,21.606
0.310,-0.197,0.732,-151.428,-52.917,19.592
0.223,-0.156,0.741,-154.785,-54.993,15.747
0.119,-0.083,0.703,-159.058,-53.101,12.329
0.052,-0.000,0.674,-163.147,-48.157,7.874
0.002,0.094,0.669,-166.748,-41.443,3.418
-0.045,0.184,0.665,-168.762,-33.691,0.916
-0.074,0.238,0.671,-168.152,-26.306,0.854
-0.030,0.299,0.704,-165.710,-20.264,2.380
-0.038,0.239,0.778,-162.292,-15.015,2.197
-0.002,0.115,0.761,-163.025,-9.827,-1.648
-0.058,0.070,0.700,-172.852,-8.240,-6.775
-0.253,0.108,0.668,-189.087,-9.705,-12.390
-0.382,0.202,0.602,-207.458,-7.935,-19.714
-0.438,0.344,0.564,-224.365,-3.235,-26.001
-0.513,0.472,0.496,-237.671,2.563,-31.067
-0.553,0.610,0.471,-245.850,8.789,-36.316
-0.574,0.700,0.502,-247.986,15.076,-41.504
-0.557,0.700,0.533,-245.911,19.836,-45.227
-0.521,0.669,0.543,-242.554,20.264,-46.875
-0.483,0.682,0.577,-240.173,16.235,-47.668
-0.436,0.692,0.571,-239.136,9.521,-50.720
-0.389,0.769,0.548,-239.380,1.038,-54.382
-0.473,0.882,0.512,-239.258,-8.362,-57.434
-0.643,0.935,0.437,-237.915,-15.747,-60.425
-0.769,0.952,0.360,-235.352,-19.165,-62.866
-0.859,0.985,0.323,-234.009,-20.508,-64.514
-0.875,1.003,0.288,-232.605,-20.935,-65.186
-0.824,1.022,0.248,-231.628,-23.437,-63.721
-0.787,1.076,0.232,-230.774,-30.518,-58.594
-0.761,1.133,0.215,-228.210,-40.283,-49.927
-0.710,1.205,0.189,-222.168,-50.903,-40.039
-0.696,1.315,0.187,-211.731,-60.852,-32.654
-0.712,1.359,0.169,-197.327,-67.749,-29.907
-0.750,1.320,0.107,-180.725,-70.435,-28.137
-0.777,1.288,0.030,-164.856,-70.557,-24.292
-0.786,1.229,-0.037,-150.330,-70.618,-20.264
-0.769,1.133,-0.118,-139.343,-72.021,-15.320
-0.796,1.078,-0.159,-133.240,-75.134,-7.629
-0.848,1.094,-0.162,-130.920,-77.942,1.038
-0.958,1.142,-0.132,-129.211,-76.721,7.751
-1.033,1.166,-0.096,-123.169,-68.176,8.484
-0.968,1.160,-0.090,-112.366,-54.565,5.066
-0.858,1.121,-0.089,-98.328,-42.786,0.977
-0.776,1.080,-0.074,-83.435,-36.621,-0.305
-0.728,1.034,-0.073,-69.763,-34.607,1.892
-0.695,0.988,-0.077,-57.861,-33.875,5.371
-0.664,0.955,-0.092,-47.913,-32.654,6.653
-0.635,0.905,-0.101,-40.283,-30.457,6.165
-0.602,0.863,-0.121,-34.851,-27.222,5.676
-0.581,0.843,-0.123,-32.227,-23.865,5.127
-0.554,0.841,-0.120,-30.701,-20.569,4.456
-0.522,0.849,-0.115,-28.992,-17.822,2.991
-0.502,0.853,-0.104,-26.001,-16.418,0.183
-0.483,0.843,-0.102,-21.790,-15.686,-3.784
-0.458,0.818,-0.104,-17.700,-17.273,-7.385
-0.487,0.771,-0.126,-15.198,-21.667,-9.094
-0.562,0.740,-0.151,-15.503,-26.672,-8.240
-0.609,0.751,-0.164,-18.066,-28.870,-7.812

-1.180,1.230,-0.309,71.655,20.752,15.625
-1.226,1.328,-0.318,81.726,23.682,16.235
-1.299,1.417,-0.331,89.722,26.489,17.761
-1.412,1.497,-0.334,95.703,29.053,21.912
-1.558,1.558,-0.342,100.525,32.471,27.161
-1.711,1.589,-0.342,105.225,37.476,33.142
-1.804,1.618,-0.332,109.863,42.603,39.307
-1.851,1.689,-0.303,115.845,47.363,45.715
-1.875,1.763,-0.281,125.122,50.415,52.795
-1.893,1.825,-0.295,138.550,51.331,62.073
-1.918,1.916,-0.310,156.860,48.767,75.500
-1.997,1.941,-0.327,180.237,45.471,92.712
-1.977,1.936,-0.367,206.421,43.823,110.962
-1.920,1.884,-0.406,231.323,42.297,126.465
-1.892,1.790,-0.483,251.770,39.856,139.221
-1.820,1.714,-0.520,268.982,36.316,152.039
-1.774,1.656,-0.502,284.912,33.936,162.231
-1.665,1.639,-0.505,302.124,35.278,167.908
-1.568,1.601,-0.502,324.402,39.246,168.579
-1.501,1.456,-0.528,352.356,45.288,163.147
-1.332,1.179,-0.577,379.639,52.917,151.367
-1.083,0.846,-0.612,399.841,58.044,135.132
-0.842,0.519,-0.600,409.119,58.594,117.676
-0.573,0.238,-0.570,408.325,55.725,99.304
-0.326,-0.021,-0.570,398.560,48.401,82.825
-0.227,-0.190,-0.557,381.714,36.438,72.327
-0.203,-0.187,-0.487,364.014,27.100,66.711
-0.125,-0.186,-0.433,354.309,29.541,59.082
0.031,-0.292,-0.395,355.347,46.021,44.922
0.326,-0.563,-0.357,360.718,72.815,26.428
0.735,-0.910,-0.323,360.962,103.821,8.179
1.233,-1.217,-0.221,349.060,132.507,-7.996
1.777,-1.444,-0.066,323.853,157.654,-24.536
2.107,-1.560,0.173,286.865,179.077,-40.588
2.341,-1.539,0.424,243.408,200.500,-54.993
2.539,-1.442,0.693,198.792,221.985,-67.322
2.674,-1.232,0.976,159.668,236.084,-76.599
2.755,-1.125,1.161,132.141,235.535,-83.679
2.662,-1.047,1.413,112.854,214.539,-89.355
2.546,-1.053,1.409,94.604,173.889,-93.079
2.314,-1.033,1.295,71.045,114.075,-91.309
1.878,-0.850,1.116,38.574,42.664,-82.153
1.367,-0.525,0.901,5.676,-19.226,-64.148
0.949,-0.241,0.689,-16.663,-58.838,-35.583
0.741,-0.119,0.510,-25.635,-76.416,-0.244
0.706,-0.182,0.417,-24.780,-79.651,33.630
0.736,-0.363,0.386,-20.081,-77.759,59.021
0.778,-0.550,0.402,-17.090,-76.294,71.045
0.793,-0.708,0.420,-17.273,-76.538,72.510
0.807,-0.828,0.448,-22.156,-79.041,68.298
0.843,-0.902,0.450,-32.654,-83.923,63.599
0.809,-0.899,0.468,-48.828,-90.576,59.631
0.726,-0.854,0.441,-68.542,-96.741,54.688
0.594,-0.762,0.433,-89.539,-99.670,49.133
0.396,-0.682,0.433,-109.802,-97.229,44.495
0.234,-0.617,0.458,-128.479,-87.402,40.283
0.172,-0.591,0.478,-146.179,-72.571,36.316
0.159,-0.566,0.499,-164.856,-58.228,31.860
0.131,-0.578,0.500,-185.913,-47.485,26.428
0.046,-0.485,0.519,-209.778,-40.283,20.691
-0.013,-0.365,0.556,-232.849,-33.325,16.052
-0.051,-0.281,0.574,-252.747,-24.841,11.719
-0.068,-0.219,0.567,-271.240,-16.846,7.080
-0.123,-0.141,0.548,-290.833,-10.681,1.831
-0.198,-0.038,0.501,-309.937,-5.310,-2.747
-0.263,0.108,0.468,-327.087,-0.793,-7.812
-0.315,0.275,0.457,-339.844,2.686,-15.076
-0.411,0.418,0.424,-346.252,6.897,-24.719
-0.481,0.562,0.423,-347.290,10.254,-34.119
-0.471,0.707,0.448,-344.238,12.756,-40.894
-0.454,0.812,0.483,-336.609,14.221,-43.884
-0.378,0.882,0.526,-326.111,14.221,-44.006
-0.298,0.947,0.564,-314.392,11.292,-42.480
-0.290,0.977,0.569,-302.917,4.639,-41.260
-0.360,0.972,0.496,-292.725,-4.822,-39.734
-0.467,0.994,0.389,-283.875,-17.395,-37.964
-0.579,1.047,0.311,-274.658,-30.090,-39.612
-0.651,1.126,0.244,-263.489,-40.100,-46.753
-0.691,1.193,0.194,-249.817,-47.485,-57.495
-0.794,1.212,0.180,-233.948,-52.795,-67.322
-0.820,1.247,0.194,-217.041,-54.932,-70.862
-0.767,1.318,0.211,-200.500,-54.626,-68.359
-0.778,1.312,0.212,-184.265,-54.260,-62.744
-0.763,1.281,0.203,-169.250,-54.993,-54.749
-0.757,1.240,0.190,-155.334,-57.312,-45.776
-0.769,1.184,0.156,-141.968,-60.425,-38.513
-0.788,1.134,0.115,-130.066,-63.782,-33.936
-0.809,1.084,0.058,-119.690,-65.674,-33.081
-0.832,1.037,0.013,-111.450,-65.308,-35.461
-0.811,1.016,-0.019,-104.797,-62.561,-38.086
-0.751,1.057,-0.060,-98.328,-59.570,-39.185
-0.752,1.106,-0.069,-91.553,-57.068,-40.833
-0.735,1.109,-0.076,-84.229,-53.345,-43.213
-0.692,1.123,-0.109,-76.477,-50.110,-43.518
-0.733,1.142,-0.099,-68.970,-49.255,-41.992
-0.770,1.172,-0.059,-61.462,-48.157,-40.588
-0.746,1.188,-0.045,-53.650,-45.410,-40.894
-0.685,1.177,-0.037,-46.326,-43.152,-43.701
-0.630,1.158,-0.045,-39.673,-43.884,-46.387
-0.634,1.145,-0.066,-33.752,-47.729,-47.363
-0.665,1.126,-0.083,-28.809,-50.720,-47.058
-0.717,1.097,-0.104,-24.841,-50.537,-44.922
-0.718,1.093,-0.117,-21.729,-46.448,-40.955
-0.642,1.088,-0.130,-18.433,-40.344,-36.560
-0.594,1.075,-0.126,-15.198,-36.377,-32.043
-0.579,1.064,-0.111,-12.085,-35.522,-26.550
-0.594,1.029,-0.094,-9.644,-35.461,-21.423
-0.622,0.971,-0.080,-7.874,-34.729,-17.517
-0.639,0.904,-0.074,-7.874,-32.898,-14.709
-0.655,0.854,-0.068,-9.338,-30.334,-13.306
-0.642,0.823,-0.065,-12.268,-27.039,-13.794
-0.618,0.817,-0.066,-16.479,-24.048,-15.625
-0.579,0.841,-0.061,-20.935,-22.400,-16.663
-0.554,0.884,-0.067,-23.926,-23.010,-15.198
-0.574,0.930,-0.067,-25.452,-25.085,-10.986
-0.591,0.966,-0.070,-24.658,-26.001,-6.226
-0.589,0.985,-0.087,-21.057,-24.841,-2.319
-0.600,1.001,-0.104,-16.235,-23.193,1.038
-0.619,0.991,-0.120,-11.292,-20.752,3.052

-1.180,1.229,-0.250,51.453,23.621,20.264
-1.192,1.303,-0.276,57.617,23.621,21.118
-1.234,1.415,-0.290,62.744,22.034,20.325
-1.271,1.530,-0.289,68.115,20.752,19.409
-1.346,1.669,-0.295,77.271,20.508,21.851
-1.377,1.777,-0.287,91.797,21.851,28.564
-1.370,1.827,-0.286,112.061,23.743,39.612
-1.342,1.827,-0.303,135.864,24.475,55.054
-1.334,1.797,-0.302,161.316,24.292,71.899
-1.358,1.730,-0.316,186.279,25.146,86.731
-1.375,1.648,-0.329,208.618,27.100,98.022
-1.418,1.599,-0.331,228.943,28.381,106.934
-1.516,1.538,-0.324,247.070,30.212,114.014
-1.591,1.461,-0.325,263.306,34.302,119.568
-1.555,1.347,-0.289,277.283,39.795,124.451
-1.460,1.260,-0.268,287.903,44.128,131.958
-1.412,1.185,-0.230,296.143,45.166,140.747
-1.385,1.156,-0.173,304.565,44.434,147.339
-1.345,1.153,-0.142,316.162,44.739,147.888
-1.350,1.088,-0.138,332.886,46.387,141.724
-1.345,0.969,-0.166,353.027,50.537,131.836
-1.168,0.730,-0.177,371.765,55.664,120.850
-0.825,0.411,-0.244,382.507,54.260,112.793
-0.626,0.112,-0.299,380.859,37.964,111.511
-0.636,0.014,-0.254,369.324,13.916,115.601
-0.683,-0.030,-0.231,357.361,-0.305,117.920
-0.629,-0.164,-0.265,350.159,2.563,113.464
-0.480,-0.359,-0.290,345.947,18.921,102.783
-0.217,-0.569,-0.255,339.722,41.687,89.355
0.073,-0.819,-0.199,327.942,65.674,73.547
0.313,-1.006,-0.099,308.899,88.440,55.908
0.607,-1.123,0.089,285.583,111.938,36.987
1.002,-1.292,0.271,259.827,138.367,16.846
1.457,-1.442,0.473,231.079,163.452,-3.357
1.882,-1.561,0.694,196.045,184.265,-23.560
2.222,-1.650,0.910,153.442,198.792,-46.631
2.572,-1.644,1.021,103.088,207.886,-74.768
2.782,-1.505,1.046,43.884,205.322,-109.009
2.722,-1.220,1.039,-19.714,187.195,-144.165
2.388,-0.771,1.046,-80.627,157.654,-169.434
2.038,-0.267,1.010,-129.578,128.174,-177.246
1.653,0.186,0.913,-161.621,99.609,-164.917
1.307,0.635,0.888,-171.631,70.984,-128.113
1.100,0.870,0.863,-158.325,43.091,-76.355
1.014,0.867,0.865,-127.808,15.442,-20.386
1.029,0.661,0.873,-88.013,-10.681,29.114
1.052,0.389,0.867,-46.021,-35.095,65.491
1.089,0.073,0.821,-8.728,-57.068,85.205
1.124,-0.216,0.727,20.264,-76.843,92.468
1.090,-0.433,0.639,38.330,-95.581,92.529
1.013,-0.578,0.558,44.922,-110.596,88.928
0.908,-0.693,0.494,41.260,-119.812,83.557
0.770,-0.781,0.450,28.931,-122.498,78.491
0.642,-0.833,0.446,9.338,-118.225,72.815
0.544,-0.876,0.448,-14.893,-108.826,64.758
0.444,-0.883,0.458,-44.250,-97.351,55.420
0.338,-0.839,0.487,-77.454,-86.975,47.119
0.255,-0.729,0.524,-110.962,-77.576,40.466
0.172,-0.623,0.555,-141.479,-68.726,34.973
0.116,-0.532,0.571,-167.786,-60.059,30.640
0.034,-0.433,0.576,-190.308,-51.819,24.780
-0.088,-0.297,0.595,-209.534,-42.847,16.357
-0.150,-0.180,0.616,-224.548,-31.067,6.287
-0.140,-0.079,0.614,-236.694,-18.311,-2.747
-0.143,0.011,0.618,-247.437,-8.789,-10.254
-0.159,0.076,0.590,-257.446,-2.930,-15.869
-0.212,0.154,0.563,-266.968,-0.488,-18.616
-0.285,0.231,0.545,-274.109,0.427,-21.790
-0.309,0.324,0.545,-278.320,2.136,-27.832
-0.352,0.367,0.546,-280.579,4.333,-36.560
-0.422,0.388,0.538,-282.532,6.653,-45.532
-0.415,0.459,0.531,-286.194,8.423,-54.382
-0.406,0.530,0.539,-290.710,8.606,-64.453
-0.417,0.577,0.489,-295.898,7.568,-76.050
-0.403,0.660,0.427,-301.636,3.845,-88.196
-0.427,0.787,0.371,-307.800,-2.319,-99.609
-0.470,0.932,0.303,-312.012,-8.362,-107.605
-0.466,1.090,0.231,-313.477,-13.611,-110.718
-0.483,1.276,0.184,-311.462,-19.470,-106.873
-0.524,1.423,0.167,-304.199,-25.513,-97.961
-0.561,1.541,0.146,-290.100,-30.518,-88.440
-0.652,1.583,0.144,-268.738,-33.569,-80.627
-0.679,1.578,0.116,-242.737,-35.217,-74.890
-0.643,1.556,0.062,-215.637,-37.842,-71.106
-0.636,1.501,-0.001,-190.247,-44.373,-67.688
-0.679,1.457,-0.055,-168.457,-52.429,-63.538
-0.746,1.447,-0.073,-149.719,-57.861,-60.547
-0.782,1.404,-0.105,-133.728,-56.946,-59.998
-0.754,1.341,-0.130,-120.483,-51.331,-59.143
-0.702,1.278,-0.138,-110.413,-45.410,-57.129
-0.668,1.218,-0.140,-103.943,-42.175,-53.772
-0.644,1.149,-0.126,-101.563,-42.542,-49.194
-0.592,1.114,-0.138,-102.600,-45.715,-43.091
-0.608,1.088,-0.161,-105.042,-50.964,-37.415
-0.655,1.076,-0.182,-106.140,-55.969,-33.875
-0.680,1.104,-0.207,-104.370,-58.167,-31.982
-0.727,1.090,-0.231,-98.816,-57.556,-31.616
-0.743,1.063,-0.261,-90.820,-53.894,-31.250
-0.741,1.051,-0.291,-81.482,-48.889,-29.663
-0.749,1.028,-0.295,-72.083,-44.006,-27.893
-0.737,1.010,-0.275,-64.026,-39.185,-27.832
-0.682,0.980,-0.261,-58.777,-35.095,-28.503
-0.615,0.964,-0.246,-57.068,-33.691,-26.917
-0.581,0.970,-0.230,-59.265,-36.377,-22.888
-0.584,0.999,-0.218,-63.293,-40.955,-18.555
-0.605,1.028,-0.212,-67.566,-44.312,-16.052
-0.620,1.060,-0.223,-70.679,-45.593,-12.878
-0.631,1.127,-0.221,-70.679,-44.800,-8.423
-0.622,1.175,-0.230,-66.711,-42.297,-4.089
-0.603,1.227,-0.221,-58.838,-38.818,0.854
-0.580,1.276,-0.219,-46.814,-35.034,6.714
-0.580,1.288,-0.219,-31.067,-31.738,12.573
-0.595,1.260,-0.221,-13.733,-28.809,17.639
-0.600,1.208,-0.229,1.953,-25.452,21.179
-0.609,1.130,-0.241,15.381,-22.034,22.461
-0.627,1.050,-0.258,24.048,-19.470,23.376
-0.635,0.993,-0.272,27.100,-16.785,25.024
-0.620,0.958,-0.281,25.940,-13.977,25.513
-0.592,0.945,-0.291,21.729,-12.146,24.109

-1.086,1.130,-0.417,32.593,26.123,5.554
-1.135,1.199,-0.430,30.823,31.433,4.700
-1.174,1.281,-0.431,31.067,38.635,4.700
-1.190,1.386,-0.422,34.302,46.997,6.836
-1.210,1.497,-0.417,41.687,54.626,12.268
-1.242,1.587,-0.419,52.429,61.035,20.813
-1.281,1.672,-0.429,67.322,65.613,31.921
-1.322,1.735,-0.437,85.449,69.275,43.030
-1.394,1.767,-0.439,105.469,73.120,53.284
-1.431,1.778,-0.450,126.160,78.003,63.782
-1.404,1.753,-0.448,145.874,83.130,75.134
-1.337,1.717,-0.433,164.673,87.036,88.379
-1.263,1.669,-0.416,181.885,88.318,102.478
-1.200,1.641,-0.388,198.730,86.548,116.638
-1.244,1.585,-0.384,216.003,81.787,129.822
-1.303,1.578,-0.396,234.863,75.500,142.395
-1.381,1.571,-0.407,256.775,67.017,155.334
-1.365,1.513,-0.433,283.142,56.763,168.274
-1.271,1.396,-0.433,309.570,45.227,179.504
-1.179,1.274,-0.426,334.167,33.142,188.904
-1.159,1.122,-0.456,355.957,23.682,193.237
-1.155,1.038,-0.483,374.573,17.639,190.430
-1.103,1.031,-0.503,394.714,14.648,181.824
-1.047,0.869,-0.586,420.044,13.489,167.847
-0.988,0.678,-0.684,446.411,13.672,154.053
-0.918,0.487,-0.731,470.337,15.381,143.250
-0.733,0.134,-0.784,489.014,19.592,132.263
-0.466,-0.355,-0.954,496.643,20.081,122.131
-0.448,-0.706,-1.016,489.441,7.263,114.563
-0.636,-0.850,-0.948,470.093,-3.479,106.995
-0.682,-0.946,-0.883,445.618,8.240,94.238
-0.542,-1.108,-0.833,416.748,44.189,77.209
-0.212,-1.297,-0.700,380.249,93.750,59.448
0.249,-1.529,-0.517,332.886,144.470,41.626
0.722,-1.711,-0.282,274.170,189.575,20.508
1.149,-1.822,-0.026,208.557,226.562,-3.845
1.584,-1.840,0.255,139.221,254.517,-26.917
2.085,-1.720,0.538,73.364,275.330,-49.133
2.575,-1.529,0.769,16.541,285.950,-73.975
2.850,-1.282,0.992,-26.367,284.424,-101.624
2.941,-0.913,1.186,-57.312,271.362,-129.211
2.809,-0.509,1.345,-77.209,245.544,-150.635
2.469,-0.098,1.420,-86.243,209.717,-155.640
2.176,0.206,1.367,-83.435,167.603,-139.404
1.845,0.323,1.270,-73.303,120.789,-105.225
1.503,0.297,1.189,-60.364,73.608,-59.753
1.271,0.204,1.134,-49.316,31.616,-16.052
1.069,0.094,1.090,-38.086,-1.465,17.273
0.938,-0.035,1.041,-24.902,-25.940,39.612
0.848,-0.222,0.998,-10.132,-45.471,53.467
0.773,-0.436,0.949,3.052,-61.279,61.279
0.684,-0.621,0.918,12.207,-73.669,62.622
0.628,-0.773,0.884,14.465,-80.261,57.922
0.645,-0.884,0.837,8.850,-81.970,50.049
0.657,-0.945,0.805,-4.944,-82.214,42.297
0.680,-0.954,0.777,-26.428,-83.069,36.377
0.657,-0.872,0.749,-53.345,-84.290,32.715
0.562,-0.735,0.752,-81.360,-85.144,28.992
0.499,-0.597,0.747,-106.262,-83.069,25.879
0.471,-0.473,0.736,-128.052,-78.613,25.146
0.389,-0.329,0.759,-146.851,-75.806,25.879
0.331,-0.175,0.787,-161.255,-73.730,29.236
0.336,-0.024,0.843,-168.518,-71.228,34.973
0.374,0.072,0.885,-167.908,-68.665,39.185
0.381,0.039,0.900,-162.048,-67.078,39.368
0.344,-0.041,0.864,-158.875,-65.430,37.476
0.188,-0.136,0.770,-163.574,-64.453,35.217
-0.039,-0.180,0.673,-178.833,-63.599,30.396
-0.219,-0.119,0.565,-203.125,-58.777,24.902
-0.362,0.051,0.491,-229.553,-48.828,20.386
-0.425,0.235,0.435,-252.014,-35.217,15.869
-0.420,0.394,0.439,-264.893,-21.240,12.146
-0.379,0.463,0.485,-268.311,-8.545,8.850
-0.296,0.468,0.540,-267.212,1.282,3.540
-0.237,0.411,0.544,-266.785,7.690,-4.089
-0.264,0.367,0.500,-270.325,8.118,-11.597
-0.445,0.385,0.431,-277.954,4.456,-18.799
-0.588,0.458,0.334,-287.415,-0.366,-28.748
-0.713,0.606,0.220,-296.021,-6.470,-39.856
-0.874,0.815,0.172,-299.316,-13.184,-47.485
-0.938,1.057,0.174,-293.457,-16.174,-50.110
-0.909,1.216,0.218,-276.611,-14.893,-47.852
-0.852,1.282,0.292,-251.282,-12.634,-42.297
-0.772,1.257,0.352,-222.229,-12.512,-34.180
-0.681,1.172,0.402,-193.909,-16.052,-24.780
-0.636,1.045,0.412,-171.692,-24.048,-15.930
-0.664,0.914,0.388,-157.532,-34.485,-8.362
-0.747,0.842,0.364,-150.574,-45.349,-3.601
-0.820,0.845,0.341,-146.912,-53.833,-3.296
-0.856,0.830,0.277,-144.104,-57.434,-9.155
-0.861,0.803,0.223,-139.832,-59.082,-17.639
-0.828,0.766,0.166,-135.437,-59.875,-25.024
-0.763,0.784,0.110,-133.057,-60.547,-29.968
-0.731,0.778,0.071,-135.010,-62.134,-33.325
-0.786,0.750,0.004,-141.907,-64.453,-31.494
-0.860,0.849,-0.029,-150.940,-64.392,-24.353
-0.934,0.994,0.017,-157.471,-60.059,-20.386
-0.967,1.080,0.043,-156.677,-51.331,-22.766
-0.922,1.143,0.045,-147.522,-42.419,-28.748
-0.863,1.170,0.065,-131.958,-37.415,-36.926
-0.827,1.117,0.068,-113.586,-36.560,-44.250
-0.771,1.064,0.058,-96.069,-38.452,-47.363
-0.748,1.013,0.043,-82.764,-42.358,-46.021
-0.754,0.935,-0.010,-74.768,-47.302,-41.443
-0.795,0.909,-0.053,-71.594,-50.842,-35.461
-0.841,0.905,-0.083,-72.021,-52.002,-31.433
-0.893,0.921,-0.106,-74.951,-49.683,-29.968
-0.936,0.958,-0.118,-77.209,-44.617,-27.283
-0.943,1.056,-0.109,-76.965,-37.659,-23.376
-0.931,1.146,-0.097,-71.350,-30.579,-19.470
-0.914,1.198,-0.071,-59.753,-25.085,-16.541
-0.860,1.210,-0.061,-43.457,-21.545,-14.160
-0.803,1.196,-0.057,-24.963,-20.996,-12.268
-0.779,1.112,-0.055,-7.141,-23.926,-9.399
-0.806,0.993,-0.082,5.005,-28.320,-4.883
-0.858,0.888,-0.104,9.583,-31.128,-0.671
-0.899,0.806,-0.119,7.263,-30.579,1.953
-0.906,0.770,-0.116,-0.244,-27.100,1.892
-0.888,0.798,-0.112,-9.644,-22.095,0.854

-1.240,1.266,-0.250,47.546,24.536,-16.113
-1.315,1.345,-0.266,54.626,28.320,-13.794
-1.411,1.408,-0.286,62.500,34.180,-9.216
-1.514,1.496,-0.298,71.716,42.236,-2.808
-1.612,1.589,-0.307,84.534,51.758,6.104
-1.686,1.677,-0.313,102.356,62.256,17.700
-1.728,1.739,-0.315,125.854,71.289,30.884
-1.736,1.730,-0.338,155.090,78.186,45.166
-1.741,1.669,-0.358,187.805,82.642,60.303
-1.661,1.582,-0.372,220.032,86.975,74.829
-1.588,1.477,-0.387,248.169,90.149,88.623
-1.542,1.336,-0.400,271.301,90.088,101.563
-1.564,1.214,-0.386,289.062,87.036,115.356
-1.581,1.155,-0.387,302.307,82.214,129.028
-1.520,1.098,-0.370,313.110,74.707,139.771
-1.451,1.084,-0.339,322.815,64.575,147.949
-1.397,1.073,-0.282,334.534,54.749,153.015
-1.388,1.061,-0.242,348.816,48.828,154.663
-1.337,0.960,-0.204,365.723,47.180,153.320
-1.229,0.763,-0.198,381.042,47.668,149.048
-1.132,0.509,-0.190,390.381,47.668,140.381
-1.049,0.238,-0.128,389.038,47.058,126.099
-0.876,-0.019,-0.081,376.160,45.166,107.910
-0.737,-0.223,-0.041,353.699,39.307,90.942
-0.665,-0.263,0.033,324.463,31.799,77.454
-0.634,-0.200,0.100,297.546,28.625,64.331
-0.565,-0.118,0.149,280.640,34.668,49.194
-0.307,-0.095,0.134,275.574,48.157,33.936
-0.052,-0.098,0.073,279.602,59.570,21.423
0.082,-0.115,0.060,289.185,65.979,11.841
0.185,-0.268,0.024,302.429,74.097,3.601
0.321,-0.538,-0.033,312.866,89.722,-3.784
0.501,-0.868,-0.062,312.012,110.596,-10.864
0.734,-1.180,-0.038,295.898,133.667,-17.639
0.992,-1.420,0.018,263.000,156.860,-25.085
1.310,-1.482,0.099,217.224,179.749,-33.813
1.572,-1.372,0.246,165.283,199.219,-42.358
1.828,-1.193,0.416,118.835,215.210,-48.706
2.054,-1.021,0.606,85.205,228.088,-54.199
2.185,-0.984,0.834,63.904,235.474,-62.256
2.250,-0.996,1.061,49.866,236.755,-71.838
2.343,-1.040,1.184,35.767,226.196,-82.947
2.333,-0.956,1.257,17.029,196.350,-95.337
2.120,-0.791,1.245,-6.409,147.766,-105.896
1.858,-0.519,1.086,-31.555,90.210,-107.239
1.372,-0.283,0.891,-57.373,32.532,-95.032
0.950,0.005,0.812,-76.416,-9.583,-62.256
0.821,0.134,0.722,-84.778,-28.442,-20.264
0.806,0.020,0.670,-85.815,-34.912,14.893
0.843,-0.190,0.674,-85.632,-39.124,41.382
0.848,-0.351,0.730,-87.524,-45.959,58.411
0.870,-0.486,0.767,-90.393,-54.688,66.895
0.888,-0.615,0.793,-94.910,-65.063,69.214
0.874,-0.726,0.800,-102.478,-76.355,67.017
0.819,-0.767,0.810,-114.258,-86.243,60.425
0.746,-0.752,0.799,-130.066,-92.102,50.049
0.622,-0.671,0.789,-149.475,-94.666,40.100
0.512,-0.537,0.792,-170.349,-95.215,34.973
0.462,-0.369,0.819,-189.453,-93.201,35.278
0.484,-0.216,0.849,-203.369,-89.844,39.185
0.515,-0.112,0.904,-210.937,-87.585,43.945
0.531,-0.088,0.899,-214.172,-86.609,47.974
0.466,-0.080,0.875,-217.468,-88.257,49.866
0.308,-0.109,0.810,-223.389,-89.661,49.194
0.079,-0.031,0.733,-232.056,-87.830,46.753
-0.137,0.032,0.655,-241.272,-81.848,42.603
-0.300,0.062,0.607,-250.366,-72.632,38.818
-0.386,0.095,0.551,-259.949,-62.622,36.987
-0.426,0.164,0.539,-270.935,-54.810,37.048
-0.440,0.260,0.529,-280.823,-49.011,38.025
-0.415,0.404,0.558,-286.499,-43.762,38.635
-0.416,0.493,0.586,-286.377,-38.025,36.987
-0.449,0.495,0.610,-282.532,-30.151,31.982
-0.535,0.386,0.589,-279.419,-21.118,25.879
-0.632,0.291,0.536,-280.884,-14.709,22.949
-0.677,0.273,0.465,-287.598,-12.634,23.010
-0.681,0.308,0.372,-298.401,-14.526,22.644
-0.600,0.473,0.284,-309.937,-20.142,21.545
-0.566,0.672,0.204,-317.200,-28.564,18.860
-0.546,0.843,0.155,-317.444,-37.354,12.573
-0.507,0.985,0.088,-309.387,-45.471,4.700
-0.558,1.079,0.081,-294.861,-53.528,-2.441
-0.722,1.010,0.047,-274.841,-60.913,-5.249
-0.860,0.959,0.023,-252.686,-66.223,-3.601
-0.929,0.973,0.001,-231.445,-69.336,-3.235
-0.952,0.985,0.016,-210.449,-72.021,-6.836
-0.925,0.999,0.004,-188.171,-76.477,-12.817
-0.932,0.987,-0.018,-164.917,-82.825,-17.456
-1.008,0.971,-0.033,-142.090,-89.050,-20.386
-1.038,0.922,-0.078,-120.911,-90.210,-22.461
-1.079,0.876,-0.124,-102.844,-87.219,-25.208
-1.125,0.799,-0.149,-89.050,-81.909,-31.067
-1.098,0.758,-0.196,-79.529,-74.951,-39.673
-1.101,0.712,-0.231,-73.669,-69.824,-48.523
-1.090,0.709,-0.244,-70.557,-66.956,-54.810
-1.061,0.765,-0.234,-68.298,-65.125,-59.509
-1.033,0.830,-0.213,-65.796,-62.805,-63.354
-1.018,0.883,-0.180,-62.012,-60.181,-63.354
-1.004,0.952,-0.159,-55.664,-56.946,-58.960
-0.993,1.006,-0.138,-46.997,-52.307,-54.321
-0.985,1.012,-0.137,-35.889,-46.021,-50.842
-0.948,1.000,-0.149,-24.353,-38.818,-48.035
-0.898,0.995,-0.162,-13.367,-32.715,-45.288
-0.850,0.993,-0.164,-5.188,-28.748,-41.504
-0.833,0.969,-0.191,-0.183,-27.588,-33.813
-0.873,0.948,-0.206,2.563,-29.114,-23.254
-0.933,0.956,-0.177,3.845,-29.785,-14.099
-0.955,0.965,-0.170,5.371,-28.076,-7.263
-0.965,0.956,-0.153,7.935,-25.208,-3.052
-0.962,0.940,-0.128,10.437,-22.339,-2.197
-0.956,0.903,-0.131,11.353,-19.775,-3.052
-0.962,0.880,-0.124,10.010,-18.250,-3.662
-0.957,0.868,-0.118,7.019,-16.663,-4.211
-0.926,0.875,-0.109,3.174,-15.320,-5.371
-0.868,0.897,-0.104,-0.122,-15.747,-6.287
-0.817,0.919,-0.114,-2.319,-18.738,-5.066
-0.825,0.941,-0.109,-3.479,-23.254,-3.784
-0.843,0.955,-0.099,-3.906,-25.452,-4.272
-0.850,0.964,-0.087,-4.089,-23.499,-5.981

-1.307,1.200,-0.125,59.998,6.714,-8.789
-1.355,1.222,-0.146,72.388,11.292,-6.897
-1.420,1.252,-0.160,82.581,14.832,-3.662
-1.527,1.304,-0.165,90.698,18.005,-1.038
-1.632,1.387,-0.188,98.022,23.071,0.671
-1.727,1.516,-0.209,106.262,29.297,2.625
-1.858,1.668,-0.212,117.981,36.682,5.676
-1.960,1.803,-0.226,135.559,46.387,11.841
-2.075,1.908,-0.255,160.156,57.007,21.118
-2.167,1.968,-0.271,191.101,68.115,32.288
-2.197,1.916,-0.254,224.792,79.041,44.006
-2.069,1.802,-0.286,257.019,86.304,59.082
-1.972,1.660,-0.312,284.729,85.327,78.674
-1.924,1.494,-0.322,306.824,75.500,101.379
-1.886,1.377,-0.313,325.012,61.768,122.803
-1.850,1.272,-0.352,340.942,49.988,137.451
-1.804,1.236,-0.396,356.873,43.335,144.653
-1.742,1.210,-0.461,376.160,42.725,145.691
-1.617,1.079,-0.535,398.987,47.607,141.357
-1.438,0.889,-0.596,422.058,55.725,132.935
-1.209,0.646,-0.630,441.650,64.636,122.864
-0.962,0.346,-0.636,454.407,70.251,111.389
-0.709,0.032,-0.594,457.275,69.153,98.633
-0.449,-0.313,-0.555,448.242,58.899,88.562
-0.311,-0.580,-0.475,425.476,39.917,82.703
-0.304,-0.722,-0.365,392.883,21.790,78.369
-0.309,-0.814,-0.307,358.215,16.663,71.899
-0.223,-0.832,-0.263,326.111,27.405,60.974
-0.035,-0.864,-0.205,298.279,50.415,45.593
0.221,-0.959,-0.111,273.743,80.811,29.114
0.607,-1.069,-0.009,248.230,113.037,13.611
1.012,-1.204,0.129,219.177,143.799,-1.465
1.414,-1.315,0.283,185.486,171.631,-17.029
1.800,-1.385,0.452,149.048,196.777,-34.668
2.192,-1.421,0.577,110.352,218.750,-53.528
2.449,-1.405,0.698,68.848,233.582,-72.327
2.584,-1.270,0.842,26.245,238.892,-88.684
2.674,-0.992,0.973,-12.817,234.314,-100.525
2.633,-0.693,1.101,-44.067,217.957,-108.093
2.487,-0.404,1.202,-64.026,190.063,-110.107
2.343,-0.180,1.215,-71.960,152.588,-107.544
2.071,-0.026,1.172,-72.510,106.201,-101.685
1.707,0.077,1.074,-69.763,57.312,-88.501
1.349,0.172,0.967,-64.331,13.489,-64.331
1.068,0.213,0.845,-55.176,-19.165,-32.654
0.916,0.193,0.729,-41.809,-40.955,0.732
0.855,0.109,0.653,-25.513,-54.504,29.358
0.781,-0.007,0.607,-8.728,-61.890,49.561
0.704,-0.154,0.577,5.859,-64.880,60.303
0.648,-0.287,0.565,17.639,-64.880,64.270
0.612,-0.412,0.570,25.269,-63.965,64.209
0.614,-0.541,0.584,26.306,-64.026,62.622
0.625,-0.651,0.600,19.958,-65.979,60.852
0.625,-0.710,0.612,6.653,-69.214,58.044
0.565,-0.710,0.618,-10.925,-72.693,52.734
0.447,-0.656,0.635,-30.884,-73.547,44.983
0.312,-0.548,0.674,-50.171,-70.190,36.865
0.171,-0.472,0.720,-66.772,-61.768,29.968
0.132,-0.430,0.761,-82.031,-50.781,26.001
0.168,-0.388,0.797,-96.680,-42.114,25.818
0.212,-0.344,0.843,-111.816,-37.903,27.039
0.277,-0.260,0.889,-125.916,-36.743,27.649
0.294,-0.220,0.877,-137.817,-37.842,26.428
0.198,-0.115,0.872,-148.193,-41.321,24.597
0.063,-0.003,0.882,-155.640,-44.006,22.522
-0.082,0.085,0.876,-160.217,-42.969,20.752
-0.158,0.156,0.886,-161.987,-38.879,20.142
-0.182,0.197,0.898,-162.231,-33.691,20.508
-0.174,0.167,0.926,-161.804,-28.442,20.752
-0.136,0.089,0.904,-162.476,-24.963,19.775
-0.123,0.046,0.908,-166.626,-24.719,17.212
-0.191,-0.006,0.870,-174.255,-25.635,12.756
-0.341,-0.002,0.806,-185.242,-26.611,4.944
-0.422,0.068,0.758,-199.219,-27.100,-6.042
-0.491,0.226,0.758,-213.745,-26.855,-15.198
-0.577,0.372,0.746,-224.915,-25.269,-20.142
-0.600,0.500,0.759,-231.812,-22.644,-20.325
-0.586,0.561,0.775,-234.375,-20.386,-18.372
-0.563,0.549,0.739,-235.962,-19.409,-17.151
-0.537,0.507,0.697,-238.342,-21.912,-14.954
-0.540,0.500,0.652,-242.493,-27.344,-10.803
-0.589,0.489,0.592,-247.620,-33.447,-6.775
-0.686,0.477,0.542,-253.296,-37.964,-5.859
-0.744,0.473,0.477,-259.949,-38.879,-9.888
-0.722,0.501,0.398,-269.226,-38.574,-19.409
-0.689,0.627,0.352,-280.029,-39.856,-32.410
-0.708,0.780,0.335,-288.147,-42.847,-44.739
-0.693,0.921,0.300,-291.443,-46.387,-51.880
-0.670,1.013,0.267,-287.598,-52.917,-49.683
-0.647,1.057,0.256,-278.503,-61.401,-40.283
-0.586,1.097,0.188,-267.822,-70.984,-28.625
-0.668,1.072,0.151,-254.456,-81.909,-15.869
-0.757,1.028,0.093,-239.563,-89.905,-5.493
-0.823,0.983,0.041,-224.487,-91.797,-2.380
-0.874,0.929,0.014,-209.595,-88.867,-4.639
-0.844,0.921,0.000,-194.885,-83.008,-9.338
-0.813,0.933,-0.014,-180.237,-77.637,-14.465
-0.770,0.963,-0.033,-164.917,-74.280,-16.052
-0.756,1.012,-0.022,-148.743,-73.303,-14.160
-0.761,1.038,-0.021,-130.981,-74.158,-9.949
-0.770,1.024,-0.027,-113.281,-75.012,-5.249
-0.818,0.979,-0.036,-96.069,-74.890,-1.099
-0.845,0.925,-0.052,-80.688,-73.242,2.258
-0.863,0.865,-0.068,-67.322,-70.251,2.319
-0.862,0.814,-0.083,-56.519,-66.284,-1.343
-0.843,0.771,-0.096,-48.462,-62.683,-6.775
-0.823,0.750,-0.126,-43.396,-59.814,-12.207
-0.792,0.744,-0.160,-41.199,-57.922,-15.137
-0.769,0.754,-0.198,-41.260,-57.617,-15.869
-0.794,0.759,-0.230,-43.091,-57.922,-16.113
-0.825,0.790,-0.255,-45.715,-56.702,-16.479
-0.856,0.829,-0.267,-47.668,-53.467,-16.602
-0.877,0.878,-0.276,-47.729,-48.035,-16.479
-0.879,0.932,-0.265,-44.800,-41.138,-15.503
-0.876,0.967,-0.255,-38.574,-34.485,-12.756
-0.883,0.981,-0.253,-29.907,-29.358,-7.507
-0.909,0.976,-0.248,-19.775,-26.001,-2.197
-0.909,0.936,-0.252,-9.277,-23.743,2.075
-0.903,0.900,-0.251,-1.953,-22.705,4.089

-1.310,1.049,-0.259,43.335,-0.793,-21.484
-1.328,1.132,-0.256,49.072,-0.854,-25.146
-1.364,1.226,-0.268,55.176,1.221,-28.442
-1.422,1.314,-0.313,60.669,5.066,-30.579
-1.539,1.401,-0.353,65.796,10.498,-30.151
-1.650,1.500,-0.385,70.923,18.494,-26.062
-1.764,1.631,-0.418,78.613,28.259,-18.188
-1.808,1.793,-0.434,92.102,39.368,-7.141
-1.814,1.890,-0.416,112.549,50.537,5.310
-1.825,1.939,-0.405,139.099,62.195,20.569
-1.787,1.950,-0.390,170.410,75.073,37.720
-1.771,1.887,-0.392,204.834,87.524,54.688
-1.740,1.771,-0.401,238.586,97.107,71.106
-1.720,1.635,-0.412,269.043,102.783,86.609
-1.706,1.514,-0.422,295.898,104.309,99.792
-1.684,1.408,-0.418,319.519,103.333,109.985
-1.623,1.288,-0.396,340.027,102.539,116.699
-1.477,1.150,-0.387,358.398,102.478,120.667
-1.253,0.940,-0.406,373.169,100.037,122.559
-1.031,0.723,-0.403,382.385,91.064,126.465
-0.841,0.527,-0.379,386.230,75.500,134.521
-0.679,0.319,-0.389,385.010,53.528,143.250
-0.675,0.175,-0.416,381.348,27.161,149.353
-0.744,0.144,-0.418,380.127,4.761,148.499
-0.749,0.105,-0.455,385.864,-4.333,139.954
-0.695,0.020,-0.508,398.437,-0.671,125.916
-0.624,-0.165,-0.578,413.208,12.756,108.215
-0.476,-0.386,-0.622,423.706,32.104,88.257
-0.244,-0.636,-0.619,425.049,53.467,68.237
0.043,-0.910,-0.565,414.185,72.449,49.622
0.335,-1.116,-0.443,389.160,85.815,33.875
0.555,-1.217,-0.254,352.356,95.703,22.278
0.770,-1.201,-0.020,310.608,107.727,13.550
0.993,-1.192,0.200,270.020,125.610,2.502
1.293,-1.192,0.401,234.070,149.597,-14.465
1.656,-1.245,0.539,200.195,177.124,-37.720
1.993,-1.249,0.745,166.687,202.515,-64.209
2.288,-1.265,0.953,132.324,224.182,-92.285
2.460,-1.283,1.104,93.872,236.694,-117.920
2.476,-1.250,1.235,48.035,231.323,-134.888
2.339,-1.116,1.388,-3.357,206.909,-141.357
2.132,-0.849,1.447,-54.688,168.640,-139.282
1.837,-0.498,1.446,-100.098,124.451,-132.874
1.451,-0.120,1.415,-133.484,79.956,-120.178
1.145,0.194,1.312,-151.733,42.847,-100.342
0.910,0.372,1.194,-155.334,14.221,-71.777
0.721,0.422,1.094,-146.729,-7.446,-33.142
0.657,0.342,1.032,-130.371,-23.804,9.888
0.718,0.162,1.005,-110.474,-36.560,47.729
0.772,-0.069,0.982,-91.064,-49.072,71.655
0.762,-0.239,0.966,-75.012,-62.073,81.970
0.721,-0.328,0.926,-62.134,-73.120,82.947
0.669,-0.385,0.844,-52.124,-81.421,79.590
0.570,-0.400,0.784,-45.654,-88.806,76.904
0.508,-0.428,0.726,-42.969,-94.238,77.087
0.431,-0.462,0.679,-44.312,-96.741,79.224
0.340,-0.441,0.684,-49.255,-95.459,80.811
0.292,-0.426,0.702,-56.274,-88.745,79.590
0.282,-0.428,0.705,-64.331,-78.491,75.073
0.255,-0.410,0.721,-73.792,-68.970,69.031
0.213,-0.369,0.738,-84.595,-61.646,63.538
0.142,-0.320,0.741,-96.191,-55.847,60.364
0.079,-0.266,0.760,-107.727,-51.147,58.105
0.049,-0.198,0.778,-117.859,-46.570,56.030
0.005,-0.146,0.772,-126.282,-42.236,52.673
-0.049,-0.089,0.769,-132.874,-39.124,47.791
-0.109,-0.036,0.783,-138.184,-36.255,43.457
-0.110,0.030,0.702,-142.029,-32.593,39.734
-0.199,0.100,0.818,-144.653,-29.602,36.682
-0.140,0.038,0.776,-146.545,-25.269,34.180
-0.136,0.020,0.792,-150.513,-20.752,30.029
-0.166,-0.029,0.764,-158.630,-19.531,25.452
-0.272,-0.030,0.719,-170.227,-19.592,18.677
-0.389,0.039,0.673,-183.472,-20.264,7.446
-0.511,0.141,0.601,-195.251,-20.203,-5.493
-0.603,0.272,0.550,-203.247,-18.677,-17.822
-0.645,0.389,0.537,-206.970,-15.808,-26.001
-0.621,0.465,0.560,-206.848,-12.085,-28.320
-0.537,0.499,0.603,-205.017,-9.338,-27.954
-0.459,0.488,0.631,-202.759,-9.155,-27.893
-0.409,0.448,0.629,-202.637,-12.329,-29.480
-0.460,0.411,0.590,-206.238,-17.212,-32.837
-0.596,0.397,0.506,-212.463,-21.362,-38.818
-0.725,0.415,0.410,-220.520,-24.109,-47.913
-0.811,0.464,0.328,-229.370,-26.245,-56.641
-0.822,0.570,0.265,-237.122,-28.015,-61.707
-0.831,0.713,0.234,-241.699,-28.625,-65.125
-0.827,0.850,0.252,-240.906,-28.381,-67.078
-0.765,0.959,0.284,-234.192,-26.917,-66.833
-0.653,1.035,0.315,-222.717,-26.123,-64.453
-0.608,1.056,0.322,-209.534,-28.259,-60.425
-0.586,1.035,0.312,-196.350,-33.020,-54.504
-0.638,0.976,0.271,-184.998,-38.269,-47.180
-0.712,0.891,0.225,-176.697,-42.053,-40.527
-0.742,0.786,0.150,-171.753,-43.945,-37.781
-0.755,0.703,0.073,-170.593,-46.143,-40.100
-0.763,0.692,0.060,-172.485,-48.706,-47.302
-0.756,0.699,0.060,-175.354,-49.622,-57.312
-0.694,0.720,0.046,-177.917,-50.171,-64.453
-0.639,0.777,0.029,-181.519,-52.063,-65.857
-0.594,0.897,0.006,-183.899,-55.298,-62.073
-0.594,1.017,-0.001,-181.763,-59.631,-55.359
-0.649,1.081,-0.028,-174.316,-62.622,-48.279
-0.683,1.118,-0.063,-162.170,-62.683,-41.260
-0.699,1.150,-0.095,-145.874,-61.096,-35.400
-0.732,1.145,-0.111,-126.404,-58.594,-30.762
-0.748,1.123,-0.116,-105.591,-54.810,-25.024
-0.733,1.111,-0.113,-85.632,-50.842,-17.517
-0.697,1.096,-0.100,-66.650,-47.241,-9.521
-0.692,1.062,-0.095,-49.866,-44.006,-2.625
-0.681,1.011,-0.094,-36.377,-41.016,2.686
-0.718,0.954,-0.107,-27.283,-37.537,6.897
-0.750,0.905,-0.121,-23.315,-33.020,10.376
-0.713,0.885,-0.132,-23.499,-27.710,11.597
-0.730,0.857,-0.139,-26.978,-24.780,9.338
-0.733,0.857,-0.161,-32.043,-24.109,6.836
-0.750,0.888,-0.173,-37.170,-26.184,6.104
-0.770,0.937,-0.184,-41.138,-29.175,6.592
-0.789,1.006,-0.185,-42.786,-31.616,7.263

-1.136,1.194,-0.272,67.932,4.822,-5.859
-1.192,1.154,-0.291,81.604,6.104,-6.287
-1.241,1.108,-0.309,91.797,7.996,-6.653
-1.292,1.074,-0.325,97.412,10.376,-7.690
-1.372,1.088,-0.337,99.121,13.428,-9.521
-1.453,1.167,-0.351,98.511,18.555,-10.925
-1.536,1.272,-0.362,99.731,25.452,-10.010
-1.599,1.385,-0.367,105.591,33.752,-7.141
-1.644,1.550,-0.352,117.371,43.457,-3.174
-1.681,1.730,-0.330,137.756,54.810,1.343
-1.677,1.843,-0.295,168.274,68.420,5.737
-1.627,1.834,-0.258,206.299,82.764,11.169
-1.509,1.701,-0.269,245.178,94.971,20.935
-1.417,1.504,-0.295,278.320,99.243,38.635
-1.404,1.312,-0.286,302.063,94.055,63.965
-1.400,1.155,-0.236,315.979,85.388,91.431
-1.348,1.018,-0.207,322.327,77.454,115.784
-1.322,0.927,-0.168,324.585,69.702,133.850
-1.289,0.925,-0.136,327.026,61.279,143.127
-1.294,0.950,-0.129,333.496,52.185,144.653
-1.303,0.924,-0.124,345.947,42.847,143.005
-1.193,0.805,-0.112,360.352,35.583,143.616
-1.060,0.621,-0.099,371.826,29.358,145.081
-0.993,0.429,-0.081,376.709,23.437,143.738
-0.967,0.216,-0.039,373.840,20.630,137.268
-0.887,0.049,0.042,363.342,24.902,125.732
-0.677,-0.078,0.126,347.778,33.508,110.901
-0.427,-0.174,0.171,330.322,37.598,94.788
-0.286,-0.124,0.241,314.026,32.410,81.177
-0.276,-0.048,0.293,306.030,26.550,68.298
-0.213,-0.069,0.303,309.570,29.907,55.054
-0.060,-0.232,0.257,318.542,42.236,42.114
0.070,-0.458,0.222,325.317,58.594,29.358
0.192,-0.714,0.203,323.608,76.599,15.076
0.400,-0.928,0.206,311.340,94.604,-0.122
0.634,-1.120,0.220,287.842,108.398,-15.015
0.811,-1.270,0.299,254.456,117.065,-27.161
0.981,-1.339,0.394,213.867,124.023,-35.522
1.181,-1.315,0.474,169.861,133.057,-45.349
1.391,-1.262,0.521,126.587,144.775,-62.134
1.535,-1.179,0.573,86.609,157.898,-83.313
1.712,-1.056,0.631,50.049,169.922,-103.271
1.887,-0.923,0.711,18.005,176.575,-117.249
2.029,-0.738,0.806,-8.728,174.255,-121.643
2.014,-0.545,0.892,-29.480,160.461,-118.774
1.808,-0.338,0.969,-44.434,136.475,-111.633
1.525,-0.202,0.994,-53.772,108.337,-99.731
1.237,-0.096,0.996,-58.228,80.566,-80.322
1.022,-0.095,0.960,-59.814,56.091,-55.115
0.889,-0.141,0.931,-61.035,33.936,-27.832
0.790,-0.249,0.931,-63.660,14.526,-3.479
0.793,-0.349,0.937,-68.359,-0.122,16.602
0.811,-0.445,0.921,-74.158,-11.719,31.433
0.796,-0.468,0.911,-80.505,-23.682,40.710
0.764,-0.431,0.893,-85.083,-34.912,46.082
0.757,-0.379,0.879,-85.571,-44.861,49.988
0.769,-0.354,0.869,-82.397,-53.772,54.443
0.783,-0.361,0.850,-77.515,-62.561,60.242
0.753,-0.376,0.833,-73.303,-71.899,65.979
0.691,-0.400,0.815,-70.740,-80.383,70.557
0.621,-0.436,0.804,-70.313,-86.426,73.364
0.604,-0.486,0.807,-72.754,-89.966,73.608
0.600,-0.514,0.784,-79.041,-93.018,71.350
0.506,-0.452,0.762,-88.562,-96.313,67.017
0.374,-0.340,0.790,-97.717,-97.412,62.256
0.382,-0.248,0.680,-103.210,-92.957,58.899
0.232,-0.143,0.782,-105.652,-85.999,55.542
0.168,-0.209,0.722,-106.934,-77.698,50.842
0.083,-0.218,0.700,-112.671,-68.359,43.945
-0.077,-0.215,0.725,-124.634,-62.744,40.710
-0.149,-0.220,0.675,-140.930,-57.556,38.940
-0.247,-0.171,0.684,-161.255,-54.749,38.513
-0.291,-0.106,0.680,-181.152,-52.124,36.011
-0.334,0.025,0.688,-197.571,-47.668,28.015
-0.374,0.168,0.707,-206.787,-40.588,17.090
-0.359,0.258,0.744,-207.642,-30.273,4.883
-0.267,0.201,0.730,-204.041,-19.409,-7.080
-0.257,0.087,0.651,-204.102,-14.526,-16.357
-0.384,0.077,0.571,-213.013,-18.372,-23.621
-0.494,0.175,0.489,-227.722,-25.085,-29.541
-0.655,0.319,0.425,-241.943,-28.870,-33.386
-0.741,0.443,0.405,-251.038,-26.184,-36.194
-0.739,0.495,0.392,-255.249,-17.395,-40.344
-0.643,0.521,0.396,-256.409,-7.446,-45.410
-0.544,0.539,0.424,-256.592,-2.075,-49.255
-0.455,0.527,0.439,-256.836,-1.953,-51.270
-0.422,0.500,0.424,-259.338,-7.141,-52.307
-0.441,0.535,0.394,-264.099,-16.357,-53.589
-0.501,0.615,0.328,-269.287,-27.222,-57.251
-0.608,0.702,0.257,-273.376,-36.987,-62.622
-0.685,0.789,0.171,-275.757,-44.983,-66.406
-0.689,0.923,0.115,-274.414,-50.842,-66.650
-0.677,1.093,0.101,-268.005,-55.664,-64.148
-0.704,1.210,0.094,-255.371,-59.204,-60.486
-0.682,1.265,0.091,-237.793,-61.462,-53.894
-0.675,1.270,0.068,-218.140,-64.514,-43.091
-0.732,1.233,0.058,-198.608,-69.397,-29.053
-0.782,1.207,0.058,-180.725,-72.937,-14.832
-0.799,1.140,0.047,-165.161,-73.853,-5.249
-0.821,1.054,-0.004,-152.832,-73.914,0.061
-0.831,0.979,-0.021,-142.273,-74.463,5.127
-0.795,0.939,-0.050,-132.385,-74.829,9.399
-0.772,0.916,-0.067,-123.413,-75.562,11.780
-0.786,0.885,-0.058,-114.136,-75.867,11.780
-0.752,0.895,-0.076,-104.309,-74.890,9.644
-0.751,0.887,-0.086,-94.849,-73.608,4.333
-0.762,0.854,-0.127,-87.585,-71.838,-1.099
-0.770,0.829,-0.177,-83.252,-69.641,-3.662
-0.836,0.877,-0.202,-81.421,-66.650,-4.150
-0.853,0.925,-0.229,-78.735,-60.547,-5.066
-0.842,0.956,-0.256,-74.158,-53.040,-7.141
-0.822,0.991,-0.286,-66.956,-45.837,-9.033
-0.819,1.021,-0.283,-57.617,-40.466,-10.681
-0.821,1.004,-0.284,-47.852,-35.583,-12.451
-0.854,1.001,-0.256,-39.124,-30.396,-12.207
-0.895,0.994,-0.220,-32.227,-24.719,-8.850
-0.924,1.009,-0.181,-26.489,-18.066,-3.540
-0.932,0.984,-0.139,-21.118,-11.902,1.465
-0.939,0.942,-0.105,-17.456,-6.775,4.517

-1.236,1.185,-0.286,71.228,16.174,-9.033
-1.287,1.271,-0.294,81.787,20.752,-11.414
-1.339,1.333,-0.290,91.370,25.879,-12.634
-1.391,1.396,-0.283,99.243,31.921,-11.536
-1.432,1.441,-0.278,106.018,38.330,-7.263
-1.481,1.464,-0.277,111.755,44.128,-0.427
-1.566,1.505,-0.265,117.493,48.523,9.277
-1.640,1.556,-0.241,125.183,53.101,19.348
-1.693,1.603,-0.216,136.841,58.228,29.053
-1.680,1.628,-0.192,153.931,64.758,39.307
-1.658,1.620,-0.182,176.331,71.350,50.842
-1.658,1.563,-0.188,202.515,78.003,63.782
-1.604,1.472,-0.188,229.797,82.825,77.271
-1.480,1.326,-0.212,254.150,83.435,91.797
-1.391,1.137,-0.247,273.315,75.806,108.826
-1.377,0.999,-0.221,285.461,61.157,126.526
-1.416,0.893,-0.172,291.199,47.302,141.541
-1.485,0.864,-0.180,294.250,40.283,152.283
-1.556,0.783,-0.244,296.936,38.330,157.166
-1.633,0.686,-0.297,298.401,38.757,156.067
-1.660,0.639,-0.321,298.279,40.833,149.841
-1.657,0.630,-0.309,299.744,46.082,137.756
-1.635,0.602,-0.265,303.406,56.763,119.446
-1.389,0.516,-0.182,308.594,73.181,96.619
-1.002,0.308,-0.169,310.913,86.426,73.486
-0.756,0.133,-0.110,306.152,84.778,57.983
-0.656,0.038,0.000,295.105,71.106,52.673
-0.626,-0.021,0.081,280.762,57.129,51.758
-0.583,-0.054,0.137,266.785,50.171,49.500
-0.457,-0.093,0.156,255.371,51.453,41.260
-0.314,-0.125,0.168,248.535,57.800,27.466
-0.144,-0.158,0.193,246.094,68.298,11.597
0.103,-0.239,0.243,246.887,82.153,-2.625
0.427,-0.416,0.257,247.803,95.215,-14.526
0.684,-0.589,0.304,245.056,101.257,-24.597
0.861,-0.730,0.387,236.511,101.990,-33.325
1.009,-0.881,0.428,222.656,103.516,-41.504
1.172,-1.001,0.477,204.773,107.361,-50.659
1.433,-1.088,0.530,182.495,114.380,-62.317
1.712,-1.090,0.578,156.677,123.474,-75.806
1.904,-1.030,0.638,129.883,132.996,-89.966
1.980,-0.895,0.729,103.149,142.700,-104.492
1.990,-0.758,0.878,77.881,150.757,-117.310
2.005,-0.664,0.991,54.749,153.503,-122.070
1.955,-0.562,1.084,33.020,144.836,-115.784
1.849,-0.456,1.099,11.230,122.009,-101.990
1.643,-0.313,1.061,-9.155,84.839,-83.191
1.291,-0.137,0.958,-26.489,39.734,-60.303
0.888,0.052,0.879,-36.011,0.305,-33.691
0.632,0.158,0.785,-34.485,-23.560,-5.859
0.493,0.153,0.704,-23.437,-34.485,19.775
0.406,0.072,0.658,-7.690,-36.987,40.100
0.386,-0.067,0.638,7.935,-35.217,53.345
0.383,-0.239,0.649,21.057,-33.630,61.462
0.403,-0.400,0.688,28.564,-34.485,66.284
0.435,-0.536,0.718,29.053,-38.635,68.359
0.409,-0.633,0.748,22.522,-45.532,67.505
0.349,-0.677,0.749,10.498,-52.124,64.026
0.228,-0.646,0.758,-3.723,-56.335,57.800
0.142,-0.592,0.792,-17.822,-55.847,50.049
0.170,-0.556,0.814,-31.189,-50.293,42.786
0.171,-0.501,0.842,-43.274,-44.739,36.133
0.181,-0.408,0.917,-53.650,-40.527,29.480
0.267,-0.332,0.997,-59.875,-35.217,24.170
0.372,-0.313,1.018,-62.988,-29.724,18.921
0.361,-0.335,1.019,-66.589,-29.175,13.000
0.345,-0.363,0.965,-74.158,-35.645,8.606
0.221,-0.342,0.940,-85.083,-46.448,8.362
0.062,-0.267,0.911,-96.802,-56.580,11.536
-0.058,-0.148,0.865,-106.079,-60.425,13.000
-0.187,-0.033,0.832,-110.779,-58.228,9.949
-0.237,0.077,0.855,-110.535,-51.880,6.470
-0.214,0.139,0.900,-104.858,-43.274,6.531
-0.021,0.138,0.982,-96.375,-34.729,7.690
0.056,0.017,0.941,-89.294,-31.799,7.812
0.057,-0.047,1.003,-87.463,-37.720,9.460
0.001,-0.130,0.985,-89.111,-43.152,4.944
-0.171,-0.163,0.921,-96.008,-49.133,-1.770
-0.396,-0.116,0.811,-105.042,-52.368,-12.085
-0.585,-0.004,0.728,-114.136,-52.185,-24.719
-0.713,0.065,0.673,-121.033,-46.936,-34.302
-0.773,0.115,0.639,-126.038,-37.476,-40.771
-0.730,0.141,0.670,-130.981,-26.978,-45.898
-0.624,0.121,0.696,-137.268,-16.968,-50.415
-0.511,0.106,0.716,-146.606,-11.414,-53.711
-0.460,0.131,0.721,-158.447,-11.780,-55.481
-0.439,0.198,0.724,-170.288,-14.038,-58.044
-0.407,0.256,0.687,-180.237,-15.686,-62.317
-0.441,0.306,0.607,-188.171,-18.616,-67.139
-0.554,0.367,0.530,-193.909,-22.583,-72.266
-0.606,0.421,0.470,-197.815,-24.902,-78.308
-0.608,0.471,0.428,-200.623,-25.818,-84.656
-0.611,0.558,0.453,-203.613,-26.672,-89.417
-0.583,0.623,0.486,-207.703,-26.550,-91.492
-0.511,0.640,0.476,-213.257,-26.978,-90.698
-0.412,0.674,0.441,-222.168,-32.043,-86.731
-0.439,0.762,0.391,-232.361,-43.518,-78.491
-0.590,0.879,0.357,-239.380,-55.969,-67.932
-0.697,0.942,0.296,-239.746,-62.195,-59.753
-0.731,0.985,0.240,-233.215,-62.256,-55.969
-0.773,0.981,0.166,-221.375,-59.937,-57.068
-0.824,0.966,0.082,-207.275,-57.678,-60.669
-0.862,0.927,-0.001,-193.176,-54.321,-64.148
-0.837,0.901,-0.044,-180.603,-49.866,-66.101
-0.801,0.852,-0.079,-171.448,-45.044,-67.871
-0.770,0.842,-0.105,-166.565,-41.748,-67.627
-0.812,0.880,-0.103,-163.696,-39.368,-65.430
-0.862,0.889,-0.088,-160.217,-34.546,-64.148
-0.839,0.859,-0.083,-156.677,-27.283,-65.857
-0.756,0.828,-0.081,-153.687,-22.034,-70.923
-0.680,0.838,-0.072,-151.001,-22.522,-77.820
-0.642,0.870,-0.085,-147.949,-27.527,-83.862
-0.672,0.963,-0.085,-142.944,-34.485,-86.365
-0.728,1.095,-0.076,-133.911,-39.978,-85.083
-0.773,1.196,-0.055,-118.225,-41.565,-81.421
-0.804,1.191,-0.051,-98.816,-39.063,-77.759
-0.807,1.143,-0.053,-80.750,-33.936,-73.364
-0.777,1.096,-0.033,-66.467,-29.907,-67.871
-0.750,1.048,-0.015,-57.190,-28.564,-61.401

-1.507,1.398,-0.064,98.389,43.762,-5.737
-1.674,1.536,-0.083,107.544,47.485,-7.019
-1.884,1.657,-0.133,120.544,53.101,-8.118
-1.965,1.760,-0.196,137.024,61.340,-6.592
-1.968,1.883,-0.244,157.104,65.552,-1.343
-2.057,2.004,-0.262,182.922,64.148,8.240
-2.209,2.075,-0.273,215.698,60.669,20.752
-2.285,2.068,-0.286,252.808,59.998,34.302
-2.231,1.962,-0.312,290.894,62.134,49.438
-2.152,1.841,-0.334,327.698,63.660,66.772
-2.158,1.662,-0.340,361.877,64.880,82.825
-2.044,1.460,-0.358,391.785,70.679,95.825
-1.838,1.174,-0.394,415.771,76.355,105.652
-1.607,0.900,-0.423,430.847,74.280,115.295
-1.520,0.665,-0.445,436.707,61.890,123.962
-1.492,0.490,-0.436,435.608,46.204,129.639
-1.426,0.339,-0.477,431.824,35.400,131.592
-1.329,0.140,-0.544,429.504,30.884,129.150
-1.228,-0.073,-0.618,429.138,31.128,122.253
-1.125,-0.382,-0.683,430.664,39.124,108.887
-0.986,-0.739,-0.684,429.260,54.504,91.736
-0.606,-1.122,-0.572,420.410,76.660,73.547
-0.132,-1.480,-0.387,399.841,99.915,53.833
0.320,-1.698,-0.105,368.225,120.483,34.546
0.799,-1.881,0.192,329.529,145.142,14.526
1.397,-2.034,0.426,286.133,174.988,-5.920
2.210,-2.191,0.560,234.863,206.177,-29.846
3.181,-2.300,0.633,168.518,232.056,-59.326
3.995,-2.054,0.772,85.205,249.695,-98.267
4.000,-1.559,0.833,-10.559,255.066,-155.029
4.000,-0.951,0.940,-105.347,243.286,-213.440
3.675,0.048,1.133,-177.795,210.205,-231.018
3.104,1.049,1.361,-207.153,167.542,-200.317
2.747,1.552,1.443,-188.354,113.647,-138.672
2.466,1.610,1.300,-136.047,52.734,-67.627
2.069,1.258,1.091,-74.402,-15.259,3.845
1.699,0.694,0.870,-13.855,-75.867,71.533
1.456,-0.017,0.661,36.499,-118.713,123.962
1.362,-0.661,0.464,70.435,-143.616,149.536
1.280,-1.080,0.295,84.778,-158.325,147.522
1.153,-1.292,0.161,82.397,-167.480,127.197
0.978,-1.348,0.050,68.359,-172.119,102.112
0.768,-1.301,-0.010,47.241,-170.471,81.299
0.586,-1.201,-0.024,22.278,-160.522,67.139
0.464,-1.066,0.014,-4.028,-142.883,57.495
0.435,-0.925,0.087,-30.090,-121.826,50.232
0.443,-0.819,0.180,-54.993,-102.295,44.189
0.465,-0.734,0.296,-78.674,-88.989,41.077
0.493,-0.609,0.407,-99.609,-83.191,41.504
0.456,-0.470,0.506,-117.004,-82.642,41.260
0.392,-0.328,0.554,-130.005,-83.313,36.987
0.266,-0.232,0.573,-139.038,-84.351,30.823
0.126,-0.145,0.608,-146.729,-83.130,25.085
0.022,-0.094,0.631,-153.870,-76.660,21.851
0.014,-0.114,0.635,-162.231,-66.345,21.484
0.066,-0.140,0.651,-174.194,-57.739,24.292
0.066,-0.144,0.647,-190.430,-52.795,26.367
0.038,-0.117,0.622,-210.632,-49.927,24.597
-0.055,-0.078,0.599,-233.704,-47.668,20.935
-0.203,0.006,0.522,-258.545,-46.326,18.494
-0.356,0.138,0.477,-281.738,-43.762,15.564
-0.448,0.206,0.368,-301.331,-40.894,12.451
-0.558,0.312,0.329,-317.993,-39.429,10.376
-0.682,0.408,0.335,-329.834,-36.133,7.812
-0.690,0.481,0.357,-336.060,-28.015,3.174
-0.602,0.528,0.363,-338.013,-19.592,-2.502
-0.564,0.576,0.368,-337.402,-16.968,-7.202
-0.644,0.623,0.390,-335.632,-20.020,-12.329
-0.746,0.720,0.383,-333.252,-24.292,-17.883
-0.908,0.791,0.371,-329.224,-28.687,-23.499
-0.943,0.807,0.303,-323.914,-33.569,-27.588
-0.966,0.833,0.227,-319.580,-43.640,-27.771
-1.056,0.968,0.214,-314.697,-57.800,-25.879
-1.168,1.123,0.263,-303.711,-68.848,-26.367
-1.176,1.195,0.280,-283.997,-71.960,-29.785
-1.130,1.210,0.295,-258.179,-71.106,-32.959
-1.089,1.137,0.284,-230.713,-69.763,-33.508
-1.047,1.025,0.259,-205.139,-68.726,-29.785
-1.014,0.916,0.249,-184.753,-68.665,-23.804
-0.969,0.861,0.224,-169.373,-69.763,-18.433
-1.031,0.826,0.173,-157.410,-73.242,-14.038
-1.123,0.828,0.143,-146.667,-75.684,-11.719
-1.167,0.797,0.117,-136.047,-74.280,-12.329
-1.167,0.821,0.123,-126.587,-68.481,-13.733
-1.075,0.847,0.147,-116.943,-60.730,-15.442
-0.998,0.889,0.149,-106.079,-54.626,-15.991
-0.921,0.960,0.166,-93.323,-51.758,-15.808
-0.864,1.000,0.175,-77.637,-51.514,-15.869
-0.819,0.998,0.149,-59.814,-52.917,-16.418
-0.816,0.961,0.118,-42.175,-55.542,-15.747
-0.818,0.914,0.057,-27.161,-57.556,-14.465
-0.840,0.870,0.003,-16.052,-57.495,-14.893
-0.854,0.848,-0.039,-8.911,-54.626,-17.822
-0.849,0.855,-0.047,-4.944,-48.645,-22.461
-0.796,0.885,-0.045,-2.075,-41.138,-26.245
-0.713,0.929,-0.034,0.366,-35.461,-26.184
-0.666,0.973,-0.028,3.113,-33.386,-22.278
-0.661,0.990,-0.017,6.470,-33.325,-17.456
-0.657,0.964,-0.020,9.399,-32.837,-13.611
-0.659,0.931,-0.019,11.230,-31.616,-11.169
-0.640,0.889,-0.023,10.864,-29.602,-9.949
-0.625,0.853,-0.037,7.812,-28.015,-8.423
-0.646,0.841,-0.049,3.052,-27.527,-5.981
-0.666,0.848,-0.059,-1.465,-26.489,-4.028
-0.676,0.880,-0.065,-4.150,-24.353,-3.296
-0.706,0.914,-0.067,-4.883,-21.484,-3.357
-0.700,0.947,-0.064,-1.892,-17.395,-3.784
-0.663,0.961,-0.063,3.967,-13.428,-4.944
-0.622,0.944,-0.059,10.986,-11.536,-5.920
-0.615,0.909,-0.065,16.602,-12.329,-4.822
-0.635,0.864,-0.069,19.836,-14.709,-2.686
-0.670,0.824,-0.082,19.775,-16.052,-0.366
-0.688,0.803,-0.084,16.846,-15.747,0.305
-0.685,0.803,-0.079,12.329,-13.916,-0.488
-0.668,0.817,-0.073,7.812,-11.719,-1.770
-0.643,0.837,-0.058,3.723,-10.559,-3.052
-0.623,0.860,-0.044,0.488,-10.071,-3.845
-0.597,0.882,-0.032,-1.404,-10.498,-4.089
-0.583,0.901,-0.026,-2.502,-11.841,-3.967

-1.425,1.063,-0.255,60.242,21.423,6.042
-1.505,1.163,-0.282,69.092,25.146,6.653
-1.588,1.287,-0.314,79.041,28.320,6.714
-1.685,1.411,-0.355,91.309,31.311,7.935
-1.819,1.522,-0.360,106.628,36.072,11.414
-1.933,1.612,-0.366,125.488,44.067,18.494
-1.998,1.691,-0.380,148.499,54.626,28.809
-2.025,1.766,-0.404,176.819,64.697,41.138
-2.028,1.792,-0.436,210.815,71.899,55.298
-1.938,1.755,-0.427,248.047,77.209,70.862
-1.834,1.617,-0.480,285.828,78.369,88.013
-1.786,1.472,-0.543,320.435,72.021,106.262
-1.783,1.390,-0.577,350.220,59.509,122.559
-1.782,1.314,-0.616,377.502,47.119,135.681
-1.731,1.352,-0.684,404.602,38.513,145.874
-1.641,1.423,-0.764,436.951,33.813,153.076
-1.582,1.494,-0.859,476.929,33.508,155.701
-1.544,1.463,-0.984,524.719,39.490,152.039
-1.465,1.182,-1.139,576.294,52.795,140.991
-1.300,0.654,-1.224,618.286,70.618,126.465
-1.002,-0.068,-1.229,634.705,86.121,113.953
-0.654,-0.823,-1.107,614.075,89.294,107.605
-0.452,-1.430,-0.909,554.565,75.195,110.229
-0.509,-1.696,-0.610,464.722,54.016,115.356
-0.566,-1.739,-0.376,362.305,45.410,118.103
-0.506,-1.650,-0.232,263.489,57.556,115.723
-0.402,-1.383,-0.081,179.138,85.632,105.042
-0.151,-1.083,0.114,118.225,125.977,84.717
0.338,-0.937,0.247,82.764,170.654,58.472
0.819,-0.967,0.375,66.772,204.407,30.579
1.232,-1.117,0.511,60.425,221.497,4.822
1.637,-1.246,0.643,54.443,224.731,-17.212
1.971,-1.301,0.780,46.692,218.384,-38.269
2.270,-1.281,0.946,38.940,209.229,-58.960
2.511,-1.235,1.070,32.227,202.942,-81.177
2.743,-1.245,1.154,23.621,199.829,-106.750
2.916,-1.200,1.202,7.568,193.787,-132.629
2.770,-1.073,1.203,-18.250,176.514,-152.649
2.496,-0.808,1.201,-54.688,147.827,-159.790
2.103,-0.439,1.170,-92.834,112.244,-149.536
1.794,-0.026,1.201,-120.911,75.928,-122.131
1.570,0.219,1.122,-131.531,41.931,-83.008
1.363,0.357,1.091,-125.427,7.690,-38.818
1.228,0.287,1.038,-105.225,-23.926,1.160
1.145,0.087,0.974,-78.247,-52.734,32.410
1.067,-0.084,0.887,-49.988,-77.637,51.758
0.973,-0.243,0.788,-23.621,-96.985,60.852
0.873,-0.390,0.681,-2.136,-110.535,62.195
0.789,-0.538,0.589,12.512,-117.371,58.777
0.707,-0.680,0.527,19.043,-118.530,53.711
0.650,-0.807,0.489,15.625,-114.746,48.828
0.610,-0.889,0.466,2.136,-108.276,42.419
0.536,-0.895,0.464,-19.104,-101.501,34.973
0.434,-0.839,0.493,-45.898,-94.543,28.503
0.363,-0.762,0.499,-74.951,-86.853,23.621
0.270,-0.628,0.554,-102.905,-80.200,21.362
0.269,-0.484,0.617,-125.977,-72.754,22.644
0.302,-0.369,0.673,-141.479,-65.735,24.597
0.320,-0.266,0.726,-150.879,-60.913,25.269
0.354,-0.182,0.781,-155.273,-58.594,23.010
0.337,-0.138,0.774,-157.532,-57.495,19.104
0.199,-0.070,0.738,-160.034,-57.495,15.808
0.107,-0.009,0.711,-164.307,-56.274,14.709
0.096,0.007,0.668,-169.617,-52.185,17.700
0.060,0.023,0.625,-177.124,-47.058,22.766
-0.002,0.029,0.604,-187.744,-41.016,24.658
-0.036,0.043,0.550,-201.233,-33.386,22.583
-0.117,0.066,0.548,-216.370,-24.841,19.653
-0.193,0.054,0.518,-231.689,-16.113,17.517
-0.245,0.067,0.511,-247.375,-8.057,14.709
-0.295,0.064,0.472,-262.634,-1.404,8.850
-0.410,0.130,0.409,-278.687,2.563,0.061
-0.492,0.265,0.339,-294.922,3.296,-8.911
-0.573,0.449,0.293,-308.655,3.174,-15.747
-0.616,0.581,0.259,-317.261,4.517,-18.982
-0.598,0.726,0.247,-320.984,6.470,-18.494
-0.566,0.862,0.277,-318.054,6.958,-16.785
-0.530,0.975,0.324,-309.875,5.981,-16.235
-0.563,0.985,0.371,-297.241,3.235,-15.137
-0.599,0.929,0.375,-283.569,-0.732,-11.169
-0.611,0.873,0.366,-272.644,-5.737,-6.653
-0.632,0.801,0.301,-266.174,-12.695,-5.066
-0.725,0.695,0.203,-263.977,-23.315,-4.761
-0.775,0.684,0.115,-265.808,-36.377,-6.470
-0.855,0.742,0.096,-268.250,-49.927,-13.550
-0.925,0.838,0.091,-268.921,-59.021,-24.780
-0.927,0.947,0.088,-265.259,-62.927,-36.072
-0.874,1.071,0.080,-255.859,-64.941,-43.091
-0.837,1.141,0.076,-242.310,-68.054,-44.861
-0.839,1.173,0.040,-225.952,-72.449,-40.161
-0.842,1.177,0.004,-208.923,-77.393,-31.555
-0.834,1.180,-0.054,-192.383,-81.848,-23.254
-0.884,1.162,-0.087,-174.377,-86.853,-16.174
-0.950,1.120,-0.151,-154.297,-91.614,-9.338
-1.054,1.047,-0.172,-133.301,-95.276,-5.615
-1.161,0.980,-0.170,-113.525,-93.872,-6.042
-1.180,0.923,-0.175,-96.863,-86.304,-9.644
-1.146,0.885,-0.169,-83.679,-75.867,-14.343
-1.077,0.869,-0.159,-74.097,-66.650,-18.250
-0.986,0.890,-0.137,-67.505,-61.462,-19.897
-0.943,0.914,-0.136,-63.049,-61.157,-16.541
-0.969,0.960,-0.138,-59.387,-64.331,-9.705
-1.005,1.006,-0.141,-54.626,-66.162,-4.700
-1.048,1.024,-0.142,-48.279,-63.477,-3.479
-1.053,1.030,-0.143,-41.504,-56.213,-3.235
-1.011,1.049,-0.151,-34.302,-46.082,-2.319
-0.934,1.075,-0.140,-27.222,-36.377,-1.038
-0.843,1.091,-0.134,-20.203,-29.297,1.404
-0.792,1.096,-0.132,-13.855,-26.672,7.202
-0.787,1.097,-0.131,-8.057,-27.161,14.709
-0.791,1.084,-0.146,-2.869,-27.893,20.508
-0.792,1.051,-0.154,2.502,-27.222,22.461
-0.791,1.012,-0.163,7.263,-25.818,21.118
-0.775,0.985,-0.176,10.498,-22.949,17.944
-0.740,0.956,-0.186,11.353,-19.348,14.832
-0.686,0.944,-0.190,9.827,-15.991,13.794
-0.627,0.948,-0.192,6.897,-14.282,14.771
-0.601,0.962,-0.197,4.333,-15.015,15.625
-0.599,0.967,-0.199,3.662,-16.113,15.259

-1.255,1.018,-0.356,76.904,47.668,-1.648
-1.319,1.049,-0.344,83.191,56.213,-0.244
-1.355,1.126,-0.327,91.248,65.247,0.854
-1.373,1.212,-0.324,102.112,73.547,1.404
-1.432,1.298,-0.320,115.723,79.834,3.967
-1.523,1.387,-0.298,131.531,84.717,10.315
-1.576,1.453,-0.263,150.024,89.844,19.592
-1.623,1.449,-0.227,169.250,95.154,31.067
-1.648,1.415,-0.209,188.354,99.548,45.288
-1.696,1.366,-0.181,205.444,101.868,61.401
-1.734,1.342,-0.150,220.886,102.722,75.745
-1.747,1.315,-0.137,236.877,101.990,87.280
-1.749,1.255,-0.124,253.540,99.182,98.511
-1.766,1.199,-0.135,271.240,94.421,109.680
-1.734,1.151,-0.161,289.551,86.914,119.507
-1.651,1.051,-0.166,307.678,76.416,128.052
-1.597,0.929,-0.196,323.486,64.697,136.475
-1.547,0.817,-0.202,336.792,54.382,144.470
-1.475,0.718,-0.203,347.473,49.805,150.696
-1.391,0.621,-0.200,357.300,51.025,153.381
-1.240,0.549,-0.173,366.638,53.894,151.794
-1.038,0.471,-0.137,376.526,53.406,144.775
-0.923,0.429,-0.052,388.184,47.363,133.545
-0.809,0.284,-0.036,401.245,41.260,120.972
-0.749,0.075,-0.065,411.926,36.987,110.840
-0.755,-0.048,-0.061,418.701,37.415,104.065
-0.676,-0.171,-0.076,422.607,47.607,95.825
-0.517,-0.330,-0.074,423.401,66.040,83.191
-0.314,-0.602,-0.028,418.152,90.515,66.833
0.045,-0.972,0.041,400.085,119.019,49.805
0.467,-1.374,0.174,364.197,145.996,34.241
0.859,-1.673,0.365,309.692,169.250,18.188
1.287,-1.809,0.587,242.249,192.139,-1.831
1.722,-1.728,0.759,170.227,214.294,-30.701
2.079,-1.537,0.917,102.905,230.835,-71.106
2.454,-1.252,1.095,45.898,239.624,-114.624
2.713,-0.937,1.279,2.747,240.723,-149.597
2.768,-0.609,1.421,-27.161,233.398,-170.044
2.604,-0.347,1.498,-48.462,217.896,-178.284
2.315,-0.033,1.558,-63.843,192.078,-173.279
2.006,0.268,1.651,-69.763,155.029,-150.574
1.883,0.366,1.607,-65.430,111.511,-114.197
1.893,0.227,1.327,-57.190,59.875,-72.510
1.658,-0.003,1.059,-53.589,-1.770,-30.640
1.272,-0.198,0.841,-57.495,-59.570,9.644
0.976,-0.325,0.659,-64.575,-99.854,45.227
0.802,-0.398,0.554,-67.871,-120.239,71.716
0.713,-0.456,0.501,-64.270,-125.061,85.205
0.713,-0.507,0.460,-55.725,-120.667,85.083
0.748,-0.603,0.414,-46.753,-114.197,76.965
0.754,-0.673,0.368,-41.504,-111.389,70.129
0.692,-0.716,0.350,-42.664,-112.915,67.444
0.597,-0.721,0.336,-48.767,-114.807,66.895
0.479,-0.685,0.344,-57.434,-114.319,65.613
0.378,-0.632,0.377,-66.406,-109.314,61.646
0.314,-0.585,0.432,-74.280,-99.976,54.443
0.297,-0.569,0.448,-81.360,-88.806,46.265
0.275,-0.562,0.475,-89.478,-80.017,39.368
0.254,-0.529,0.519,-99.487,-74.280,34.119
0.224,-0.487,0.542,-110.718,-69.702,30.029
0.177,-0.437,0.561,-122.192,-66.223,25.269
0.146,-0.325,0.571,-132.080,-63.843,20.508
0.103,-0.277,0.550,-138.733,-62.073,14.893
-0.075,-0.184,0.515,-145.203,-60.547,7.446
-0.190,-0.074,0.541,-148.315,-55.054,3.235
-0.225,-0.096,0.555,-148.315,-43.335,-0.793
-0.200,-0.156,0.616,-150.208,-30.518,-5.005
-0.086,-0.202,0.508,-158.325,-20.996,-11.475
-0.181,-0.101,0.642,-171.814,-18.433,-17.700
-0.239,-0.040,0.584,-185.242,-18.066,-23.560
-0.274,0.095,0.597,-198.486,-15.686,-31.250
-0.377,0.189,0.593,-210.510,-14.587,-35.278
-0.439,0.290,0.569,-221.130,-11.902,-39.063
-0.501,0.383,0.583,-229.858,-9.033,-43.884
-0.513,0.478,0.605,-235.840,-5.737,-49.072
-0.474,0.554,0.631,-237.122,-3.235,-54.443
-0.438,0.629,0.643,-234.253,-3.418,-58.655
-0.409,0.673,0.650,-228.394,-6.775,-61.462
-0.425,0.669,0.620,-221.924,-12.146,-63.110
-0.498,0.634,0.559,-217.468,-17.883,-64.514
-0.549,0.649,0.486,-217.712,-22.644,-66.101
-0.596,0.708,0.405,-220.398,-26.855,-67.566
-0.681,0.796,0.364,-222.290,-31.494,-69.214
-0.753,0.833,0.324,-221.497,-34.241,-70.984
-0.783,0.874,0.332,-218.079,-35.583,-72.021
-0.736,0.900,0.337,-213.318,-36.621,-71.777
-0.699,0.899,0.326,-208.862,-39.978,-69.031
-0.684,0.867,0.302,-206.055,-45.654,-63.782
-0.676,0.870,0.270,-205.933,-52.063,-58.044
-0.710,0.875,0.221,-209.106,-56.885,-55.481
-0.753,0.853,0.138,-213.745,-59.570,-56.763
-0.763,0.861,0.038,-218.933,-61.707,-59.509
-0.778,0.905,-0.050,-223.083,-65.002,-62.744
-0.843,0.971,-0.085,-225.342,-67.627,-65.918
-0.891,1.032,-0.089,-224.792,-66.711,-68.604
-0.880,1.115,-0.100,-221.252,-62.012,-68.909
-0.845,1.199,-0.083,-212.341,-57.251,-66.895
-0.794,1.268,-0.055,-197.021,-53.467,-63.049
-0.747,1.289,-0.051,-177.307,-51.208,-58.716
-0.712,1.269,-0.054,-155.273,-51.270,-51.941
-0.709,1.220,-0.075,-133.057,-53.101,-43.396
-0.734,1.160,-0.104,-113.281,-55.481,-36.194
-0.771,1.069,-0.136,-96.802,-56.213,-33.325
-0.767,0.985,-0.189,-84.656,-54.871,-34.363
-0.769,0.928,-0.236,-76.416,-52.856,-38.330
-0.800,0.897,-0.264,-72.205,-50.354,-43.091
-0.799,0.906,-0.278,-70.862,-45.776,-46.326
-0.766,0.933,-0.284,-70.740,-39.795,-47.791
-0.689,0.979,-0.288,-71.533,-34.180,-46.875
-0.637,1.047,-0.285,-72.021,-31.555,-42.786
-0.634,1.104,-0.283,-71.045,-32.593,-36.255
-0.660,1.146,-0.291,-67.627,-34.790,-28.381
-0.706,1.166,-0.298,-61.646,-35.828,-20.630
-0.739,1.177,-0.306,-53.284,-34.241,-13.733
-0.754,1.181,-0.307,-43.030,-31.006,-8.362
-0.745,1.195,-0.299,-32.349,-26.978,-5.005
-0.745,1.175,-0.290,-21.118,-22.644,-3.174
-0.740,1.145,-0.280,-11.230,-18.555,-1.343
-0.721,1.100,-0.274,-3.479,-15.320,0.916

-1.101,1.247,-0.341,75.256,13.123,25.879
-1.182,1.238,-0.371,83.191,14.648,28.076
-1.256,1.237,-0.392,89.661,16.174,30.090
-1.324,1.238,-0.417,94.116,19.104,32.166
-1.414,1.262,-0.439,96.802,23.132,35.461
-1.494,1.316,-0.452,98.145,29.175,40.344
-1.556,1.391,-0.453,98.999,38.391,46.021
-1.594,1.489,-0.451,100.037,49.438,53.162
-1.590,1.583,-0.434,103.699,61.462,62.317
-1.602,1.678,-0.404,110.413,72.266,72.998
-1.613,1.744,-0.367,122.131,81.238,85.693
-1.621,1.769,-0.349,138.977,88.318,99.365
-1.624,1.727,-0.324,159.790,92.957,114.197
-1.597,1.632,-0.314,181.641,95.215,130.066
-1.591,1.507,-0.293,202.209,95.032,146.362
-1.593,1.390,-0.280,219.971,93.506,161.621
-1.567,1.279,-0.283,236.145,90.576,175.537
-1.520,1.208,-0.299,250.854,86.182,187.073
-1.440,1.137,-0.303,266.663,79.773,195.801
-1.370,1.044,-0.304,283.875,72.449,201.782
-1.318,0.950,-0.321,301.453,66.162,204.590
-1.252,0.819,-0.321,319.458,61.523,203.674
-1.174,0.659,-0.338,336.182,59.753,200.317
-1.078,0.484,-0.398,352.234,60.791,194.153
-0.989,0.270,-0.470,367.371,63.293,181.152
-0.958,0.023,-0.556,380.676,67.017,160.889
-0.928,-0.247,-0.637,389.954,72.815,134.949
-0.823,-0.524,-0.678,391.296,81.360,105.591
-0.665,-0.816,-0.746,382.507,89.355,78.735
-0.590,-1.018,-0.729,363.464,94.116,57.068
-0.536,-1.113,-0.675,336.975,100.647,37.048
-0.424,-1.141,-0.599,307.678,114.319,16.357
-0.209,-1.165,-0.482,277.954,136.841,-5.188
0.169,-1.225,-0.354,247.620,165.344,-27.039
0.615,-1.231,-0.160,214.233,194.092,-46.387
1.078,-1.218,0.030,178.528,220.337,-61.523
1.613,-1.182,0.232,142.761,244.507,-76.294
2.142,-1.098,0.459,109.131,265.625,-92.896
2.468,-0.965,0.782,80.505,283.447,-111.816
2.775,-0.805,1.041,59.875,297.974,-131.775
2.958,-0.758,1.283,46.997,302.979,-149.597
3.011,-0.647,1.503,38.452,287.720,-156.555
2.984,-0.543,1.661,30.884,249.573,-154.419
2.824,-0.443,1.661,20.264,189.331,-147.156
2.412,-0.240,1.587,5.005,114.929,-135.132
1.857,-0.029,1.466,-12.512,42.358,-115.967
1.467,0.089,1.265,-29.236,-11.841,-85.571
1.194,0.080,1.040,-43.884,-49.622,-45.593
1.023,0.009,0.899,-57.190,-74.463,-1.404
0.967,-0.128,0.815,-69.458,-88.379,40.283
1.017,-0.273,0.766,-81.055,-94.788,73.730
1.082,-0.382,0.718,-91.553,-98.816,94.666
1.116,-0.435,0.669,-99.731,-104.004,103.333
1.071,-0.401,0.615,-103.943,-111.267,104.675
0.945,-0.316,0.599,-102.173,-118.591,102.844
0.790,-0.235,0.605,-94.604,-122.375,99.487
0.673,-0.185,0.608,-81.787,-122.009,98.206
0.554,-0.208,0.593,-66.345,-120.789,99.487
0.420,-0.263,0.584,-51.941,-119.934,101.685
0.266,-0.310,0.610,-41.260,-117.493,101.440
