aX,aY,aZ,gX,gY,gZ
-1.184,0.361,-1.189,-226.562,-55.725,-51.208
-1.254,0.546,-1.322,-231.384,-47.363,-39.246
-1.468,0.539,-1.393,-231.689,-40.466,-35.522
-1.639,0.233,-1.492,-231.384,-24.658,-29.114
-1.617,0.451,-1.722,-242.065,-1.038,-14.893
-1.772,0.187,-1.752,-258.057,20.630,-9.827
-1.620,0.532,-1.935,-277.405,46.753,-1.221
-1.647,0.530,-2.007,-297.180,68.909,4.517
-1.640,0.647,-2.157,-309.509,82.336,0.427
-1.677,0.976,-2.306,-316.101,98.694,3.662
-1.856,0.788,-2.368,-313.171,115.662,4.639
-1.703,1.182,-2.647,-308.472,143.921,13.123
-1.815,0.986,-2.648,-300.781,167.297,13.184
-1.504,1.530,-2.968,-291.443,196.228,15.808
-1.572,1.478,-2.996,-276.306,217.773,14.343
-1.263,2.001,-3.225,-256.287,241.150,16.968
-1.340,1.767,-3.300,-236.877,262.573,21.179
-1.083,1.992,-3.631,-219.055,287.537,29.358
-1.041,1.941,-3.586,-209.351,311.340,38.574
-0.812,1.877,-3.695,-195.068,333.252,44.495
-0.588,2.005,-3.667,-180.420,353.516,54.260
-0.362,1.956,-3.633,-161.133,366.760,58.655
-0.222,1.898,-3.473,-137.268,376.892,62.256
-0.039,1.788,-3.301,-111.877,386.719,68.787
0.165,1.621,-3.118,-85.327,393.066,75.195
0.350,1.420,-2.892,-62.500,394.226,82.397
0.479,1.218,-2.659,-46.753,389.038,89.355
0.553,1.063,-2.407,-38.696,379.761,96.497
0.640,0.938,-2.132,-35.767,368.774,102.417
0.706,0.847,-1.832,-35.400,355.774,105.408
0.833,0.790,-1.527,-34.973,340.210,106.262
0.966,0.720,-1.214,-31.860,320.312,106.323
1.050,0.620,-0.925,-26.428,294.128,104.736
1.079,0.504,-0.661,-20.264,263.733,101.685
1.060,0.367,-0.446,-15.137,232.361,99.792
1.000,0.181,-0.279,-12.634,201.721,99.243
0.928,-0.004,-0.161,-15.259,174.255,95.947
0.857,-0.153,-0.083,-22.888,149.780,88.135
0.758,-0.198,-0.020,-33.508,127.502,77.881
0.643,-0.137,0.047,-42.358,107.361,65.674
0.531,-0.022,0.102,-44.861,89.294,51.086
0.427,0.100,0.131,-38.574,73.181,36.804
0.304,0.172,0.142,-23.987,58.594,23.682
0.190,0.172,0.129,-4.944,45.593,12.207
0.082,0.118,0.109,14.587,34.302,2.014
-0.011,0.032,0.066,31.799,24.048,-7.141
-0.114,-0.049,0.031,43.274,13.733,-16.724
-0.214,-0.114,0.009,48.157,4.333,-24.658
-0.279,-0.141,-0.020,47.119,-3.357,-30.518
-0.328,-0.140,-0.049,42.175,-11.047,-35.400
-0.397,-0.124,-0.080,35.461,-20.203,-39.917
-0.490,-0.103,-0.114,28.198,-29.907,-44.312
-0.481,-0.060,-0.184,22.949,-39.673,-48.889
-0.571,-0.016,-0.239,18.372,-48.767,-51.758
-0.623,-0.019,-0.314,15.564,-57.922,-53.101
-0.688,-0.031,-0.405,12.268,-64.819,-55.115
-0.734,0.022,-0.474,8.606,-69.275,-57.800
-0.761,0.082,-0.520,6.653,-71.716,-60.303
-0.762,0.152,-0.552,8.484,-71.960,-63.354
-0.738,0.217,-0.568,14.038,-71.106,-66.956
-0.688,0.274,-0.578,22.827,-69.946,-71.411
-0.618,0.311,-0.591,33.752,-69.519,-76.111
-0.605,0.294,-0.613,45.837,-71.716,-80.811
-0.624,0.220,-0.636,56.152,-76.172,-84.595
-0.654,0.108,-0.666,61.279,-81.543,-87.158
-0.690,-0.004,-0.699,59.143,-87.036,-88.745
-0.724,-0.060,-0.709,49.927,-91.919,-90.515
-0.733,-0.050,-0.714,37.415,-94.727,-93.811
-0.707,0.024,-0.706,25.146,-96.497,-97.900
-0.649,0.119,-0.705,16.968,-98.083,-101.929
-0.607,0.267,-0.684,14.404,-101.013,-105.835
-0.568,0.442,-0.676,19.226,-104.675,-109.619
-0.557,0.600,-0.669,32.227,-108.398,-112.366
-0.563,0.712,-0.669,52.490,-111.572,-113.831
-0.583,0.756,-0.681,77.332,-113.220,-115.784
-0.596,0.761,-0.702,102.173,-113.586,-118.286
-0.620,0.711,-0.731,123.962,-112.793,-121.338
-0.659,0.612,-0.756,140.747,-111.023,-124.207
-0.676,0.510,-0.783,149.963,-107.910,-125.610
-0.665,0.451,-0.813,152.039,-104.187,-125.854
-0.662,0.435,-0.821,149.292,-101.318,-127.014
-0.657,0.494,-0.804,144.043,-99.609,-130.310
-0.654,0.645,-0.759,139.404,-98.267,-136.108
-0.690,0.821,-0.708,138.428,-97.839,-141.663
-0.735,0.975,-0.665,142.761,-97.229,-143.311
-0.778,1.121,-0.614,153.076,-95.703,-140.442
-0.807,1.156,-0.605,168.762,-92.957,-135.864
-0.833,1.175,-0.574,187.073,-89.722,-131.409
-0.854,1.109,-0.581,204.468,-84.473,-126.770
-0.833,1.034,-0.604,219.116,-76.965,-121.033
-0.793,0.965,-0.635,228.638,-68.787,-115.295
-0.782,0.877,-0.636,232.544,-61.096,-111.328
-0.777,0.809,-0.612,230.225,-53.223,-108.215
-0.761,0.778,-0.558,222.595,-45.105,-105.652
-0.730,0.772,-0.483,211.487,-38.025,-102.478
-0.705,0.812,-0.416,198.547,-32.471,-98.877
-0.689,0.875,-0.328,187.439,-30.212,-95.520
-0.682,0.948,-0.252,180.481,-30.334,-92.651
-0.675,1.015,-0.198,178.650,-31.677,-90.393
-0.677,1.071,-0.159,182.068,-33.752,-88.379
-0.697,1.096,-0.134,188.904,-35.583,-86.060
-0.695,1.082,-0.119,197.815,-35.706,-81.299
-0.681,1.064,-0.117,206.055,-34.241,-73.975
-0.660,1.065,-0.121,212.830,-32.288,-65.063
-0.653,1.054,-0.114,218.506,-30.212,-56.580
-0.647,1.015,-0.099,222.778,-27.893,-51.514
-0.643,0.970,-0.078,224.792,-25.574,-49.500
-0.670,0.899,-0.042,224.976,-23.437,-48.767
-0.676,0.840,-0.006,223.022,-20.325,-47.668
-0.642,0.777,0.023,218.506,-16.602,-46.692
-0.598,0.761,0.076,211.426,-14.221,-45.227
-0.543,0.782,0.104,203.491,-14.099,-42.969
-0.571,0.792,0.172,197.205,-16.602,-39.917
-0.583,0.850,0.190,193.909,-18.555,-36.377
-0.614,0.865,0.235,193.665,-19.165,-34.973
-0.622,0.865,0.255,195.679,-16.846,-33.997
-0.610,0.844,0.265,198.242,-13.062,-32.043
-0.564,0.863,0.284,200.012,-8.850,-28.198
-0.551,0.844,0.311,200.989,-6.104,-23.621

-0.919,0.170,-1.596,-256.592,-13.000,-101.196
-1.051,0.036,-1.709,-273.010,3.723,-94.666
-1.143,0.003,-1.896,-301.086,20.813,-84.290
-1.184,0.216,-2.086,-338.074,34.302,-75.012
-1.206,0.715,-2.382,-370.911,40.833,-68.848
-1.484,1.071,-2.582,-390.686,38.025,-64.941
-1.818,1.326,-2.820,-397.522,39.612,-55.847
-2.038,1.493,-3.077,-397.278,56.213,-43.091
-2.352,1.394,-3.198,-395.813,85.693,-33.020
-2.195,1.547,-3.463,-397.156,131.836,-20.935
-1.993,1.531,-3.632,-399.597,178.528,-13.428
-1.765,1.632,-3.860,-401.794,216.125,-11.108
-1.564,1.869,-3.910,-398.987,249.817,-5.676
-1.463,2.028,-3.929,-382.812,275.757,-6.958
-1.134,2.113,-3.987,-347.900,305.176,-7.629
-1.033,1.946,-3.920,-301.453,325.256,-12.939
-0.599,1.962,-4.000,-255.859,350.647,-14.404
-0.488,1.650,-4.000,-217.773,367.798,-12.085
-0.274,1.376,-4.000,-194.153,385.864,-8.728
-0.169,1.250,-3.902,-183.838,403.992,-6.775
0.203,1.412,-3.864,-177.429,421.265,-5.249
0.350,1.441,-3.643,-163.513,425.598,-5.676
0.450,1.455,-3.399,-140.442,424.866,-5.249
0.552,1.453,-3.145,-110.596,420.044,-4.944
0.665,1.386,-2.895,-78.613,413.696,-2.136
0.825,1.211,-2.687,-48.279,403.870,5.066
0.873,1.044,-2.376,-25.696,389.038,12.695
0.963,0.892,-2.115,-12.024,371.155,19.592
1.035,0.809,-1.851,-6.836,349.304,26.428
1.098,0.772,-1.613,-6.042,323.486,33.936
1.101,0.691,-1.400,-5.676,293.762,43.030
1.051,0.598,-1.190,-6.287,264.526,51.514
1.010,0.496,-1.005,-7.812,239.380,56.519
0.979,0.396,-0.833,-9.277,216.309,57.678
0.929,0.321,-0.673,-9.460,195.007,55.786
0.849,0.257,-0.534,-7.751,174.927,52.124
0.765,0.224,-0.407,-4.578,156.372,47.241
0.665,0.185,-0.292,1.160,139.160,39.978
0.526,0.125,-0.199,9.155,123.108,31.799
0.384,0.043,-0.127,17.517,108.582,24.048
0.253,-0.038,-0.063,24.353,95.886,16.541
0.123,-0.126,-0.019,28.198,84.167,8.667
0.015,-0.182,-0.001,28.137,72.266,2.075
-0.084,-0.201,0.010,25.269,58.594,-2.869
-0.198,-0.201,-0.002,20.081,43.396,-7.263
-0.329,-0.158,-0.018,13.855,29.114,-12.024
-0.445,-0.111,-0.043,8.362,18.188,-16.052
-0.542,-0.059,-0.067,4.639,11.047,-18.005
-0.609,-0.004,-0.084,3.601,6.836,-19.348
-0.651,0.048,-0.102,5.859,3.967,-21.912
-0.712,0.099,-0.116,11.597,0.305,-25.513
-0.727,0.087,-0.164,19.958,-4.517,-29.297
-0.790,0.058,-0.214,28.687,-10.010,-30.334
-0.832,-0.015,-0.261,33.691,-14.038,-30.518
-0.820,-0.075,-0.315,34.546,-16.479,-30.518
-0.819,-0.118,-0.347,30.457,-18.494,-31.067
-0.819,-0.131,-0.372,23.132,-21.118,-32.288
-0.816,-0.100,-0.393,14.221,-23.499,-33.691
-0.809,-0.031,-0.398,6.042,-25.818,-35.828
-0.792,0.066,-0.410,1.282,-28.381,-38.147
-0.783,0.144,-0.423,0.854,-30.823,-39.978
-0.770,0.207,-0.436,4.211,-32.410,-40.955
-0.741,0.250,-0.449,10.376,-33.142,-41.626
-0.702,0.270,-0.459,18.311,-33.630,-42.664
-0.658,0.296,-0.468,26.855,-34.729,-44.922
-0.612,0.303,-0.488,36.255,-37.170,-48.828
-0.595,0.284,-0.508,45.959,-41.016,-52.551
-0.601,0.268,-0.526,54.382,-45.105,-56.335
-0.613,0.248,-0.535,61.218,-48.523,-61.279
-0.613,0.234,-0.539,66.406,-50.781,-67.749
-0.610,0.209,-0.537,69.702,-52.795,-74.158
-0.594,0.212,-0.539,71.472,-55.176,-79.529
-0.566,0.245,-0.535,72.083,-58.105,-84.412
-0.554,0.335,-0.509,73.792,-62.134,-89.966
-0.542,0.457,-0.481,78.674,-66.528,-96.375
-0.520,0.577,-0.458,88.562,-71.167,-102.478
-0.517,0.690,-0.455,104.187,-75.989,-107.605
-0.567,0.762,-0.462,124.329,-80.933,-112.000
-0.615,0.765,-0.491,147.034,-84.351,-116.638
-0.639,0.733,-0.530,168.762,-85.876,-121.399
-0.652,0.717,-0.571,187.927,-86.487,-125.122
-0.673,0.737,-0.620,203.430,-86.548,-128.296
-0.690,0.789,-0.648,216.675,-85.754,-131.470
-0.719,0.871,-0.651,229.248,-84.167,-135.193
-0.744,0.962,-0.616,242.859,-80.566,-138.550
-0.760,1.029,-0.588,257.874,-74.402,-139.526
-0.744,1.030,-0.583,274.475,-66.040,-138.000
-0.732,0.957,-0.583,290.039,-57.556,-134.460
-0.730,0.835,-0.574,300.171,-50.720,-130.676
-0.769,0.731,-0.538,301.880,-45.044,-128.906
-0.838,0.703,-0.441,295.166,-38.513,-127.930
-0.888,0.704,-0.320,284.119,-29.968,-126.770
-0.881,0.728,-0.246,271.545,-19.653,-124.268
-0.861,0.766,-0.171,260.437,-9.644,-119.934
-0.802,0.828,-0.122,251.953,-1.770,-114.380
-0.764,0.870,-0.083,248.230,4.028,-108.826
-0.735,0.904,-0.037,248.352,7.324,-102.539
-0.721,0.918,-0.029,251.343,9.949,-95.154
-0.761,0.903,0.003,255.920,10.742,-87.463
-0.838,0.783,0.059,259.277,10.803,-81.543
-0.841,0.717,0.067,258.362,11.292,-77.209
-0.864,0.671,0.118,251.465,12.390,-74.341
-0.864,0.685,0.179,242.004,13.611,-72.205
-0.836,0.684,0.207,231.812,15.015,-70.374
-0.826,0.671,0.263,222.900,15.991,-67.017
-0.747,0.732,0.271,215.759,16.724,-61.340
-0.697,0.800,0.281,212.219,15.320,-55.908
-0.686,0.780,0.294,213.867,11.780,-50.842
-0.720,0.741,0.333,218.750,7.568,-45.837
-0.711,0.695,0.331,223.877,6.348,-40.955
-0.742,0.688,0.370,228.027,5.798,-38.635
-0.725,0.645,0.371,232.239,6.714,-38.208
-0.779,0.570,0.425,236.328,7.324,-37.964
-0.724,0.547,0.444,237.671,10.254,-35.461
-0.638,0.512,0.433,237.244,11.108,-35.461
-0.719,0.291,0.494,234.924,9.155,-35.217
-0.609,0.275,0.484,226.379,8.911,-30.762
-0.627,0.183,0.493,213.623,5.310,-31.250
-0.657,0.125,0.521,199.341,1.953,-32.959

-0.729,0.965,-1.047,-245.972,-57.129,-69.519
-0.883,0.869,-1.071,-215.210,-51.697,-66.895
-0.989,0.704,-1.154,-193.054,-39.734,-64.880
-0.951,0.670,-1.385,-184.326,-25.696,-60.242
-1.069,0.559,-1.496,-188.965,-14.343,-54.749
-1.132,0.604,-1.705,-204.590,-6.470,-52.612
-1.300,0.664,-1.885,-227.173,3.052,-49.133
-1.399,0.959,-2.062,-250.427,18.127,-39.917
-1.400,1.401,-2.345,-266.602,39.001,-27.527
-1.627,1.637,-2.408,-270.020,61.951,-17.212
-1.805,1.754,-2.444,-259.338,93.628,-7.202
-1.691,2.094,-2.635,-237.305,132.019,5.615
-1.750,2.076,-2.658,-206.604,165.283,13.123
-1.710,2.000,-2.715,-175.171,196.777,17.090
-1.671,1.978,-2.746,-149.292,225.037,22.583
-1.525,1.963,-2.785,-131.104,251.587,31.128
-1.385,1.988,-2.752,-119.873,274.719,41.077
-1.200,2.000,-2.742,-112.305,294.495,52.612
-0.992,1.942,-2.730,-107.666,312.256,68.604
-0.805,1.880,-2.659,-107.239,324.768,82.947
-0.578,1.909,-2.620,-110.107,332.520,93.628
-0.422,1.918,-2.554,-111.450,334.412,101.685
-0.264,1.873,-2.505,-108.765,333.984,106.873
-0.172,1.806,-2.455,-102.844,329.712,109.802
-0.125,1.868,-2.417,-93.994,326.599,114.990
-0.017,1.826,-2.340,-80.994,323.547,117.004
0.067,1.736,-2.258,-64.880,318.237,117.493
0.123,1.635,-2.148,-47.241,311.218,116.150
0.201,1.445,-2.045,-31.372,303.162,116.272
0.264,1.224,-1.959,-21.240,293.274,121.887
0.287,1.001,-1.848,-19.592,280.701,127.991
0.288,0.882,-1.708,-25.574,266.052,129.028
0.277,0.867,-1.574,-33.569,251.465,126.221
0.253,0.905,-1.407,-38.025,237.793,122.681
0.248,0.883,-1.243,-36.072,225.098,119.690
0.273,0.811,-1.077,-28.687,213.806,116.272
0.297,0.671,-0.920,-19.348,202.576,112.976
0.310,0.480,-0.786,-11.658,190.247,110.596
0.320,0.306,-0.655,-8.423,176.697,106.628
0.324,0.210,-0.538,-9.216,162.048,98.877
0.303,0.147,-0.442,-11.292,145.691,89.966
0.244,0.095,-0.367,-13.306,128.357,81.543
0.166,0.053,-0.300,-14.343,111.816,74.036
0.081,0.016,-0.262,-15.198,96.863,67.017
0.006,-0.001,-0.249,-15.381,83.740,59.998
-0.071,-0.010,-0.238,-15.259,71.533,52.612
-0.129,-0.001,-0.226,-14.160,61.401,44.434
-0.168,0.040,-0.203,-11.414,52.795,35.583
-0.214,0.064,-0.195,-6.653,45.410,27.771
-0.237,0.042,-0.204,-1.343,38.818,22.095
-0.264,0.005,-0.208,3.357,32.043,17.944
-0.293,-0.029,-0.219,6.287,25.024,13.489
-0.329,-0.051,-0.230,7.019,17.822,8.118
-0.372,-0.053,-0.228,6.714,10.376,2.075
-0.413,-0.043,-0.215,6.470,3.723,-3.479
-0.442,-0.060,-0.224,6.592,-2.014,-8.423
-0.479,-0.045,-0.222,7.141,-7.629,-13.062
-0.497,-0.056,-0.224,7.629,-13.245,-18.799
-0.510,-0.048,-0.238,8.179,-18.005,-24.902
-0.500,-0.009,-0.253,9.033,-22.461,-31.494
-0.492,0.029,-0.255,10.864,-27.222,-38.147
-0.492,0.052,-0.268,13.550,-32.471,-44.128
-0.491,0.080,-0.282,15.991,-37.903,-48.523
-0.482,0.090,-0.308,17.944,-43.091,-51.880
-0.462,0.108,-0.338,19.287,-48.035,-55.847
-0.452,0.131,-0.359,20.264,-53.467,-60.913
-0.460,0.161,-0.377,21.667,-59.570,-66.467
-0.457,0.177,-0.402,23.437,-64.880,-71.045
-0.457,0.192,-0.437,25.696,-69.458,-75.378
-0.442,0.209,-0.481,28.198,-73.792,-80.017
-0.460,0.241,-0.517,30.823,-78.125,-84.961
-0.484,0.322,-0.542,33.936,-81.787,-90.149
-0.531,0.417,-0.560,39.246,-84.656,-95.459
-0.590,0.489,-0.576,47.119,-87.097,-99.487
-0.627,0.547,-0.599,57.190,-87.524,-102.112
-0.638,0.591,-0.640,67.993,-86.670,-104.065
-0.636,0.629,-0.670,79.346,-85.876,-105.652
-0.633,0.661,-0.698,91.492,-85.388,-107.300
-0.619,0.688,-0.722,104.370,-85.693,-109.924
-0.643,0.671,-0.735,117.859,-86.853,-113.220
-0.687,0.648,-0.756,129.761,-87.830,-116.394
-0.807,0.614,-0.759,138.245,-87.952,-119.202
-0.914,0.568,-0.755,141.418,-83.923,-120.178
-0.949,0.561,-0.764,139.893,-75.256,-118.469
-0.945,0.578,-0.751,134.766,-64.941,-116.455
-0.905,0.631,-0.748,128.845,-56.396,-115.540
-0.864,0.726,-0.728,125.305,-51.392,-115.906
-0.849,0.872,-0.670,126.160,-49.500,-117.371
-0.858,1.006,-0.635,134.094,-49.194,-117.981
-0.871,1.116,-0.596,150.024,-48.096,-116.943
-0.893,1.205,-0.537,172.546,-45.776,-118.164
-0.910,1.275,-0.485,200.256,-41.809,-121.399
-0.906,1.273,-0.471,230.774,-36.011,-124.207
-0.888,1.232,-0.490,259.644,-29.419,-123.657
-0.891,1.177,-0.501,284.485,-22.766,-118.591
-0.912,1.116,-0.501,304.077,-14.893,-111.084
-0.912,1.035,-0.477,318.115,-5.127,-103.333
-0.870,1.007,-0.421,326.782,5.066,-96.497
-0.818,0.949,-0.360,332.764,14.038,-90.332
-0.773,0.922,-0.313,337.341,19.531,-83.801
-0.772,0.945,-0.230,342.346,21.606,-78.552
-0.802,0.995,-0.135,349.731,22.888,-75.439
-0.854,0.974,-0.098,360.352,26.001,-73.975
-0.893,0.945,-0.074,373.047,30.212,-72.083
-0.918,0.910,-0.079,385.925,35.706,-68.726
-0.878,0.870,-0.092,398.010,41.565,-65.552
-0.850,0.719,-0.072,407.471,45.715,-63.110
-0.782,0.629,-0.046,412.231,47.791,-58.960
-0.688,0.581,-0.009,410.339,48.523,-53.467
-0.638,0.471,0.019,403.687,46.265,-47.791
-0.655,0.341,0.108,393.005,41.504,-40.344
-0.646,0.282,0.187,376.953,39.001,-31.555
-0.646,0.234,0.262,357.239,37.964,-26.245
-0.666,0.076,0.340,335.632,38.513,-23.621
-0.629,-0.043,0.408,310.913,39.551,-19.714
-0.567,-0.073,0.462,282.837,38.513,-17.151
-0.540,-0.141,0.502,254.211,33.936,-19.409
-0.578,-0.261,0.565,226.318,26.978,-23.315
-0.517,-0.292,0.574,195.496,20.691,-25.635

-0.984,0.638,-1.625,-316.162,2.808,-58.044
-1.112,0.812,-1.704,-327.515,16.541,-47.668
-1.345,0.918,-1.741,-335.632,29.724,-36.987
-1.399,1.271,-1.907,-340.881,46.021,-24.109
-1.656,1.515,-1.927,-338.257,57.129,-13.062
-2.004,1.655,-2.024,-325.745,64.331,-4.395
-2.306,1.796,-2.195,-307.373,79.224,10.010
-2.502,1.820,-2.373,-289.124,103.394,26.367
-2.607,1.829,-2.611,-273.926,131.592,34.729
-2.648,1.824,-2.852,-262.268,168.213,42.725
-2.369,2.102,-3.317,-252.747,208.496,52.612
-2.315,2.126,-3.537,-242.126,242.981,58.777
-2.188,2.207,-3.779,-226.685,279.297,66.406
-1.769,2.337,-3.996,-204.529,316.162,77.271
-1.483,2.063,-4.000,-183.533,345.581,85.510
-1.197,2.022,-4.000,-169.495,373.474,91.736
-0.861,2.124,-4.000,-157.959,403.870,98.145
-0.440,2.187,-4.000,-139.893,434.509,102.478
-0.028,2.228,-4.000,-112.549,458.252,107.910
0.315,2.130,-4.000,-78.796,474.060,114.258
0.650,1.823,-3.981,-46.814,480.652,121.033
0.809,1.610,-3.705,-26.367,477.905,127.319
1.007,1.505,-3.416,-14.709,469.238,129.639
1.102,1.395,-3.107,-8.545,453.430,130.737
1.152,1.248,-2.795,-6.104,432.495,131.348
1.189,1.129,-2.478,-7.874,408.691,130.310
1.193,1.041,-2.156,-14.099,383.972,126.099
1.228,1.023,-1.851,-21.790,359.985,121.643
1.247,1.039,-1.555,-27.405,333.496,117.126
1.221,1.048,-1.281,-27.527,304.382,111.755
1.159,1.028,-1.036,-21.545,274.902,105.713
1.075,0.958,-0.832,-10.864,247.070,98.633
0.995,0.824,-0.664,1.709,222.229,91.003
0.913,0.631,-0.533,13.855,200.806,84.229
0.853,0.415,-0.441,21.423,182.739,80.688
0.800,0.222,-0.342,22.522,166.626,76.965
0.760,0.110,-0.243,17.639,150.452,68.848
0.719,0.115,-0.130,11.108,133.484,56.335
0.649,0.198,-0.046,9.155,115.173,42.969
0.558,0.238,0.015,14.893,96.497,30.640
0.445,0.216,0.055,26.611,78.186,18.494
0.326,0.169,0.060,40.344,61.584,5.798
0.197,0.109,0.066,53.467,46.875,-4.761
0.070,0.034,0.053,64.270,34.485,-12.451
-0.036,-0.022,0.028,70.618,24.841,-16.968
-0.118,-0.104,0.000,72.632,16.785,-20.691
-0.172,-0.188,-0.022,69.946,8.667,-24.658
-0.232,-0.226,-0.050,62.439,0.183,-30.579
-0.295,-0.196,-0.076,51.392,-8.911,-38.269
-0.367,-0.126,-0.097,41.138,-19.226,-46.692
-0.453,-0.034,-0.117,34.607,-30.762,-54.749
-0.510,0.100,-0.151,33.081,-42.114,-62.744
-0.588,0.225,-0.217,37.598,-53.955,-70.984
-0.759,0.323,-0.256,47.424,-65.186,-77.393
-0.898,0.385,-0.285,61.279,-69.580,-80.933
-0.961,0.407,-0.326,76.782,-65.491,-83.252
-0.982,0.360,-0.361,90.088,-56.824,-84.045
-0.937,0.326,-0.374,98.999,-47.241,-85.022
-0.863,0.331,-0.400,103.394,-40.771,-88.074
-0.856,0.340,-0.420,105.469,-40.283,-92.834
-0.920,0.343,-0.418,106.506,-44.739,-97.778
-0.966,0.368,-0.437,107.117,-50.842,-102.234
-1.019,0.485,-0.455,108.948,-57.373,-106.750
-1.125,0.621,-0.426,113.953,-63.049,-110.901
-1.199,0.717,-0.400,123.047,-63.538,-111.816
-1.229,0.749,-0.402,135.803,-58.350,-107.910
-1.234,0.724,-0.390,148.682,-49.011,-101.074
-1.188,0.648,-0.388,158.630,-37.048,-95.947
-1.078,0.574,-0.406,163.696,-25.696,-93.994
-1.014,0.527,-0.397,164.307,-19.287,-94.910
-0.973,0.496,-0.395,162.231,-18.311,-96.985
-0.943,0.486,-0.379,158.691,-20.935,-99.060
-0.956,0.518,-0.339,155.029,-25.146,-101.074
-0.976,0.615,-0.261,153.076,-28.931,-103.943
-1.009,0.680,-0.194,154.602,-30.457,-105.957
-1.046,0.685,-0.145,159.180,-27.954,-104.797
-1.043,0.655,-0.106,165.222,-21.118,-100.098
-1.006,0.621,-0.094,170.898,-11.963,-94.971
-0.923,0.620,-0.099,175.598,-3.357,-91.980
-0.851,0.598,-0.110,180.115,2.014,-91.614
-0.823,0.514,-0.128,184.631,3.601,-91.187
-0.812,0.450,-0.132,186.951,2.380,-90.637
-0.818,0.411,-0.108,186.157,0.671,-91.431
-0.826,0.390,-0.085,183.350,-0.305,-93.079
-0.837,0.356,-0.048,179.382,-0.061,-94.116
-0.849,0.329,-0.016,174.866,1.221,-93.384
-0.848,0.326,-0.004,169.312,4.211,-90.637
-0.845,0.330,0.003,163.940,7.996,-86.304
-0.862,0.356,0.011,158.813,11.902,-81.543
-0.849,0.415,0.021,154.968,15.747,-78.186
-0.841,0.449,0.037,152.344,18.311,-76.477
-0.847,0.488,0.062,151.550,19.531,-75.195
-0.835,0.509,0.089,152.405,20.630,-73.486
-0.820,0.498,0.103,154.480,21.667,-71.045
-0.802,0.452,0.107,156.189,22.461,-67.383
-0.783,0.377,0.108,155.518,22.949,-63.660
-0.775,0.315,0.113,150.513,23.254,-60.974
-0.780,0.252,0.113,141.174,23.376,-59.692
-0.775,0.199,0.111,127.502,22.705,-58.411
-0.819,0.168,0.146,110.168,20.935,-56.824
-0.863,0.197,0.186,90.820,20.020,-55.054
-0.862,0.283,0.198,72.815,21.057,-53.833
-0.847,0.373,0.233,60.181,21.545,-53.467
-0.835,0.457,0.260,54.626,20.813,-53.650
-0.794,0.527,0.272,55.664,19.165,-54.199
-0.775,0.572,0.295,61.340,15.991,-55.603
-0.749,0.589,0.305,70.129,13.123,-56.030
-0.721,0.580,0.304,79.407,10.498,-53.650
-0.705,0.535,0.295,86.975,7.629,-50.537
-0.756,0.411,0.323,89.783,4.517,-48.523
-0.780,0.340,0.340,86.365,3.540,-47.546
-0.776,0.322,0.379,77.698,5.798,-48.279
-0.733,0.344,0.414,67.200,8.789,-50.049
-0.658,0.373,0.432,57.251,10.498,-50.720
-0.615,0.409,0.464,49.255,8.179,-50.537
-0.580,0.447,0.487,44.250,3.235,-49.805
-0.543,0.482,0.477,41.748,-3.479,-48.828
-0.570,0.475,0.479,40.588,-12.146,-49.255
-0.646,0.445,0.479,39.001,-20.508,-50.232

-0.357,1.072,-1.213,-186.584,-99.243,-76.477
-0.383,0.982,-1.288,-160.339,-90.881,-62.439
-0.479,0.888,-1.372,-139.648,-87.891,-50.598
-0.612,0.780,-1.484,-125.244,-87.769,-39.734
-0.817,0.616,-1.585,-119.080,-86.731,-31.128
-0.986,0.484,-1.672,-122.437,-78.186,-24.780
-1.063,0.476,-1.816,-133.850,-61.890,-18.738
-1.160,0.528,-1.939,-151.245,-42.603,-12.146
-1.268,0.652,-2.020,-169.678,-21.179,-4.456
-1.293,0.839,-2.103,-183.899,1.648,3.174
-1.304,0.925,-2.188,-191.467,23.437,10.925
-1.373,0.870,-2.291,-195.984,42.603,19.653
-1.444,0.819,-2.395,-202.026,60.669,27.161
-1.543,0.783,-2.512,-211.731,79.468,30.640
-1.680,0.811,-2.626,-223.816,100.403,31.433
-1.771,0.925,-2.731,-235.046,127.197,30.640
-1.804,1.122,-2.812,-240.417,159.302,28.381
-1.762,1.333,-2.851,-235.474,195.984,22.949
-1.650,1.523,-2.881,-220.032,234.070,16.113
-1.521,1.686,-2.911,-195.862,270.386,10.437
-1.327,1.724,-3.003,-168.030,304.443,9.033
-1.173,1.690,-3.079,-143.494,333.923,11.047
-0.982,1.595,-3.180,-128.418,360.291,15.686
-0.766,1.466,-3.301,-125.488,383.606,25.024
-0.533,1.411,-3.328,-133.911,401.978,37.964
-0.264,1.468,-3.328,-148.193,414.490,50.232
-0.078,1.467,-3.343,-161.621,421.387,58.960
0.088,1.597,-3.286,-169.861,423.828,69.885
0.123,1.635,-3.170,-169.861,426.758,82.703
0.397,1.849,-3.289,-161.865,434.265,92.957
0.371,1.779,-2.920,-144.287,437.866,95.642
0.547,1.822,-2.723,-116.577,437.866,93.384
0.643,1.765,-2.508,-80.872,434.265,93.262
0.764,1.615,-2.305,-44.067,424.744,96.069
0.867,1.399,-2.085,-13.611,410.095,102.051
0.953,1.141,-1.881,4.639,391.235,109.985
1.000,0.893,-1.655,9.644,367.981,117.126
1.005,0.705,-1.435,2.563,340.698,121.216
0.965,0.588,-1.216,-12.512,310.608,123.413
0.892,0.524,-1.014,-31.189,279.602,124.756
0.815,0.509,-0.826,-49.133,250.366,123.840
0.750,0.544,-0.646,-62.378,223.206,119.263
0.666,0.586,-0.495,-68.298,196.533,111.755
0.567,0.593,-0.360,-66.650,171.753,103.821
0.493,0.541,-0.260,-59.448,150.818,95.886
0.421,0.477,-0.169,-50.293,133.240,86.792
0.363,0.423,-0.084,-40.588,117.554,76.050
0.279,0.335,-0.025,-31.128,101.990,65.613
0.184,0.233,0.016,-23.560,87.158,57.312
0.093,0.133,0.055,-19.348,73.975,49.561
0.012,0.059,0.076,-18.311,61.768,39.917
-0.086,0.023,0.097,-19.409,49.500,30.273
-0.173,0.026,0.113,-20.630,37.476,20.142
-0.232,0.074,0.112,-19.958,26.672,8.850
-0.322,0.152,0.109,-16.235,16.541,-2.869
-0.457,0.231,0.123,-8.545,7.935,-14.160
-0.540,0.271,0.113,2.075,3.906,-23.682
-0.602,0.265,0.081,14.893,3.296,-28.503
-0.631,0.235,0.066,27.161,2.869,-30.884
-0.637,0.194,0.046,37.048,0.977,-34.363
-0.635,0.171,0.016,45.410,-3.662,-38.818
-0.651,0.159,-0.014,52.612,-11.230,-43.335
-0.675,0.111,-0.060,58.716,-21.118,-48.462
-0.692,0.082,-0.120,62.500,-31.189,-54.138
-0.716,0.086,-0.201,63.660,-41.809,-60.059
-0.841,0.073,-0.255,62.439,-51.331,-64.514
-0.965,0.062,-0.314,59.204,-54.443,-65.308
-0.979,0.093,-0.396,54.077,-50.232,-64.453
-0.962,0.179,-0.441,49.561,-44.250,-63.599
-0.938,0.282,-0.453,49.500,-39.917,-63.660
-0.904,0.400,-0.434,55.298,-37.781,-65.125
-0.874,0.512,-0.417,68.665,-38.086,-67.627
-0.845,0.594,-0.411,88.501,-40.527,-70.923
-0.851,0.623,-0.408,112.549,-45.044,-75.378
-0.848,0.636,-0.393,137.817,-50.354,-81.787
-0.871,0.628,-0.397,162.842,-55.786,-88.074
-0.946,0.577,-0.420,185.913,-59.143,-92.163
-1.011,0.495,-0.446,204.895,-57.556,-93.811
-1.028,0.416,-0.468,218.079,-51.208,-93.567
-0.980,0.386,-0.500,226.746,-42.175,-92.957
-0.918,0.391,-0.518,232.788,-34.973,-93.445
-0.890,0.385,-0.508,237.732,-31.433,-95.947
-0.889,0.385,-0.470,242.249,-29.846,-99.609
-0.899,0.394,-0.419,246.338,-29.541,-104.736
-0.896,0.378,-0.410,250.183,-30.518,-110.168
-0.897,0.354,-0.375,253.357,-33.325,-114.685
-0.932,0.327,-0.330,254.333,-36.865,-118.225
-0.960,0.297,-0.298,252.197,-37.537,-120.483
-0.954,0.257,-0.299,246.643,-34.180,-121.399
-0.976,0.249,-0.271,237.610,-28.259,-119.629
-0.992,0.239,-0.256,225.952,-18.799,-116.455
-0.953,0.237,-0.244,213.501,-6.653,-112.854
-0.896,0.260,-0.219,201.660,3.967,-109.070
-0.847,0.308,-0.193,191.467,11.108,-106.140
-0.861,0.373,-0.126,184.753,13.489,-104.370
-0.908,0.428,-0.055,181.946,14.038,-103.760
-0.925,0.470,-0.022,182.129,14.648,-103.882
-0.954,0.457,0.015,183.838,16.235,-103.699
-0.959,0.447,0.022,185.364,17.639,-101.685
-0.952,0.431,0.029,185.913,20.569,-98.389
-0.930,0.420,0.028,185.059,23.865,-94.421
-0.880,0.418,0.031,183.228,27.100,-89.294
-0.867,0.367,0.048,180.237,29.358,-83.618
-0.869,0.330,0.068,175.415,30.579,-76.416
-0.929,0.290,0.144,167.480,32.715,-69.397
-0.942,0.246,0.203,156.189,36.804,-64.880
-0.917,0.233,0.255,142.822,41.077,-62.561
-0.872,0.246,0.296,129.028,42.908,-61.340
-0.818,0.305,0.323,117.859,41.138,-60.303
-0.786,0.350,0.348,110.046,35.522,-60.425
-0.763,0.402,0.352,106.140,27.283,-60.730
-0.761,0.425,0.352,104.797,18.616,-60.303
-0.783,0.400,0.328,103.943,10.498,-59.082
-0.815,0.361,0.300,101.257,4.944,-57.678
-0.903,0.315,0.374,96.558,2.319,-55.786
-0.928,0.293,0.376,87.524,5.066,-52.795
-0.950,0.281,0.424,75.562,9.644,-51.270
-0.897,0.335,0.438,62.439,14.221,-50.720
-0.850,0.387,0.456,51.392,14.832,-50.598

-0.838,0.722,-1.466,-201.416,36.865,-96.313
-0.952,0.859,-1.481,-206.116,41.382,-84.839
-1.078,0.922,-1.507,-207.825,45.166,-69.214
-1.152,0.984,-1.592,-213.623,49.805,-55.359
-1.258,1.124,-1.659,-224.548,53.894,-44.250
-1.391,1.331,-1.719,-237.366,59.326,-31.799
-1.578,1.577,-1.774,-248.840,67.810,-14.343
-1.740,1.820,-1.811,-255.554,81.421,6.836
-1.872,2.022,-1.857,-256.165,99.365,30.273
-1.966,2.172,-1.899,-250.244,119.385,53.345
-2.018,2.277,-1.955,-239.319,139.221,73.242
-2.042,2.397,-2.027,-226.196,158.569,90.149
-2.025,2.491,-2.119,-212.585,178.040,107.544
-1.934,2.564,-2.244,-199.829,197.876,125.549
-1.813,2.667,-2.353,-188.660,215.576,142.212
-1.715,2.733,-2.461,-177.490,232.483,157.776
-1.580,2.760,-2.566,-166.809,250.916,174.744
-1.382,2.752,-2.648,-157.104,272.339,190.308
-1.120,2.688,-2.700,-147.949,292.969,202.393
-0.867,2.578,-2.727,-138.733,310.059,211.487
-0.609,2.471,-2.712,-130.249,323.120,216.919
-0.363,2.352,-2.656,-120.728,331.665,217.896
-0.178,2.193,-2.568,-109.375,336.365,215.271
0.009,1.997,-2.452,-98.145,338.318,211.121
0.141,1.763,-2.334,-89.233,336.487,205.566
0.286,1.630,-2.090,-83.252,330.139,197.815
0.368,1.430,-1.930,-79.468,320.007,191.833
0.397,1.194,-1.724,-80.811,307.129,186.707
0.444,1.037,-1.547,-85.449,292.786,180.786
0.471,0.929,-1.359,-91.675,277.222,173.462
0.485,0.840,-1.184,-95.825,260.132,164.307
0.467,0.779,-1.006,-96.680,242.859,153.625
0.472,0.768,-0.831,-93.140,225.952,141.418
0.477,0.737,-0.687,-84.473,209.045,129.517
0.470,0.653,-0.567,-72.693,192.017,120.361
0.425,0.561,-0.463,-59.998,175.415,110.901
0.384,0.470,-0.367,-48.096,161.438,99.243
0.365,0.416,-0.284,-36.682,149.719,87.524
0.368,0.378,-0.201,-24.597,138.367,76.233
0.369,0.332,-0.144,-11.292,125.549,66.284
0.335,0.248,-0.112,1.465,110.901,57.129
0.239,0.110,-0.094,11.902,95.947,49.622
0.141,-0.012,-0.082,17.151,83.679,43.640
0.062,-0.104,-0.068,16.663,74.036,37.048
-0.018,-0.166,-0.062,11.963,65.430,30.029
-0.109,-0.176,-0.041,5.249,56.885,23.499
-0.163,-0.175,-0.025,-0.610,48.706,16.418
-0.209,-0.175,-0.030,-4.028,40.222,9.277
-0.269,-0.157,-0.036,-5.676,30.884,2.869
-0.337,-0.090,-0.032,-5.737,22.278,-2.319
-0.415,-0.102,-0.072,-3.540,15.442,-7.141
-0.484,-0.083,-0.091,0.549,10.376,-11.719
-0.553,-0.061,-0.092,5.859,7.141,-15.320
-0.586,-0.069,-0.115,12.268,4.883,-19.775
-0.627,-0.109,-0.135,18.860,1.831,-23.743
-0.697,-0.146,-0.138,22.766,-2.014,-27.222
-0.735,-0.167,-0.158,24.048,-5.981,-30.334
-0.777,-0.157,-0.173,22.644,-10.071,-33.386
-0.812,-0.139,-0.194,19.409,-14.282,-36.316
-0.872,-0.121,-0.209,15.259,-17.761,-38.452
-0.903,-0.086,-0.225,11.292,-19.714,-39.429
-0.911,-0.056,-0.250,8.179,-20.996,-40.161
-0.926,-0.006,-0.270,6.653,-23.132,-41.199
-0.916,0.041,-0.309,7.568,-25.391,-43.518
-0.914,0.088,-0.359,11.047,-28.381,-46.631
-0.954,0.141,-0.381,16.296,-32.043,-50.476
-0.981,0.225,-0.413,23.071,-33.813,-55.298
-1.012,0.306,-0.444,32.654,-33.752,-60.425
-1.090,0.366,-0.445,44.556,-32.227,-64.392
-1.154,0.381,-0.447,57.678,-28.076,-66.589
-1.166,0.378,-0.439,70.984,-21.729,-67.505
-1.132,0.365,-0.431,82.275,-14.343,-67.993
-1.063,0.366,-0.414,92.224,-8.667,-68.542
-1.026,0.375,-0.389,101.990,-5.859,-69.824
-0.995,0.406,-0.364,112.000,-5.676,-72.510
-0.974,0.467,-0.345,123.413,-7.080,-76.904
-0.975,0.511,-0.323,137.207,-10.193,-82.397
-1.000,0.540,-0.298,152.832,-12.756,-87.646
-1.004,0.568,-0.282,169.678,-12.329,-91.003
-0.995,0.548,-0.297,188.049,-9.888,-92.285
-0.982,0.497,-0.316,205.627,-6.287,-91.736
-0.941,0.428,-0.350,220.398,-1.831,-90.881
-0.913,0.304,-0.390,230.530,2.686,-90.637
-0.909,0.177,-0.401,234.375,7.019,-90.149
-0.903,0.130,-0.366,231.750,10.803,-90.759
-0.869,0.141,-0.331,225.525,14.160,-93.262
-0.844,0.172,-0.290,218.262,15.686,-96.985
-0.822,0.217,-0.230,212.463,15.564,-100.952
-0.798,0.248,-0.189,208.618,14.038,-104.187
-0.769,0.273,-0.160,206.055,11.414,-106.506
-0.761,0.277,-0.134,204.590,8.240,-107.971
-0.800,0.252,-0.111,202.698,6.348,-108.093
-0.860,0.220,-0.091,198.730,6.653,-107.056
-0.890,0.221,-0.066,193.237,9.399,-105.896
-0.884,0.261,-0.044,187.012,13.428,-104.492
-0.875,0.319,-0.030,182.373,17.517,-102.234
-0.895,0.376,-0.002,180.664,21.057,-98.938
-0.915,0.416,0.026,182.922,25.452,-96.008
-0.901,0.432,0.052,188.354,31.189,-94.666
-0.863,0.434,0.072,195.801,37.292,-95.337
-0.808,0.404,0.061,203.064,41.870,-96.252
-0.776,0.335,0.093,208.984,43.701,-95.642
-0.726,0.265,0.094,211.426,43.030,-91.675
-0.717,0.237,0.134,209.961,40.833,-86.365
-0.752,0.243,0.185,205.200,39.978,-80.566
-0.803,0.219,0.234,199.219,41.870,-74.951
-0.818,0.207,0.261,193.298,46.448,-68.787
-0.792,0.198,0.269,187.866,51.819,-63.049
-0.790,0.149,0.278,181.763,54.810,-59.387
-0.808,0.070,0.280,173.523,55.908,-57.983
-0.821,0.003,0.287,161.316,54.565,-58.655
-0.829,-0.103,0.284,144.775,51.086,-60.669
-0.800,-0.145,0.281,123.413,45.105,-62.622
-0.827,-0.135,0.348,97.717,37.476,-64.941
-0.857,-0.082,0.410,70.190,31.311,-67.139
-0.870,-0.020,0.466,44.495,28.259,-68.909
-0.856,0.078,0.501,23.132,26.428,-70.435
-0.825,0.211,0.528,8.240,24.231,-71.655
-0.792,0.355,0.547,2.075,20.935,-72.449

-1.017,0.432,-1.644,-115.173,-0.488,-20.813
-1.175,0.609,-1.770,-130.249,8.667,-13.855
-1.385,0.820,-1.869,-139.465,21.484,-8.789
-1.637,0.928,-1.948,-143.433,40.161,-2.686
-1.818,0.965,-2.042,-143.982,67.688,8.850
-1.919,0.998,-2.134,-143.738,99.060,22.217
-1.953,1.097,-2.265,-142.578,127.808,31.006
-1.962,1.219,-2.435,-137.390,151.917,34.668
-2.007,1.258,-2.581,-129.272,172.913,37.354
-2.026,1.288,-2.763,-124.207,196.289,41.626
-1.968,1.380,-2.940,-124.207,224.792,48.523
-1.869,1.511,-3.099,-129.578,255.371,56.763
-1.693,1.692,-3.249,-136.963,288.269,65.002
-1.455,1.814,-3.399,-143.127,319.397,73.914
-1.216,1.875,-3.527,-148.193,343.994,86.304
-1.129,1.783,-3.510,-151.917,361.328,98.938
-0.692,2.028,-3.711,-154.480,376.221,109.985
-0.569,1.956,-3.584,-151.794,381.653,113.953
-0.315,1.982,-3.511,-144.836,388.733,117.798
-0.106,1.964,-3.430,-131.104,396.973,122.253
0.120,1.867,-3.346,-114.197,406.982,123.474
0.359,1.808,-3.202,-95.642,413.635,121.338
0.505,1.759,-2.991,-75.195,412.903,118.469
0.599,1.711,-2.748,-51.941,405.457,115.295
0.712,1.634,-2.498,-27.466,394.409,113.159
0.832,1.471,-2.260,-5.493,379.761,114.075
0.933,1.221,-2.006,8.301,361.206,117.798
1.016,0.967,-1.735,11.230,338.623,120.361
1.092,0.771,-1.479,3.357,312.073,120.483
1.041,0.630,-1.236,-11.414,281.311,119.629
0.952,0.568,-1.041,-30.884,253.113,117.310
0.829,0.594,-0.852,-49.377,231.689,111.267
0.769,0.692,-0.710,-61.218,214.905,102.905
0.703,0.774,-0.562,-63.477,200.806,96.069
0.676,0.819,-0.410,-55.298,186.523,89.355
0.671,0.799,-0.290,-38.513,170.349,81.970
0.644,0.738,-0.178,-15.930,150.818,72.632
0.582,0.581,-0.101,8.667,128.479,60.852
0.482,0.361,-0.045,30.701,106.079,49.438
0.363,0.153,0.007,44.861,86.792,40.527
0.196,-0.024,0.046,48.950,72.205,31.311
0.095,-0.126,0.070,44.373,64.087,19.897
0.060,-0.140,0.080,35.706,58.411,7.507
0.006,-0.076,0.102,27.100,50.842,-3.479
-0.043,0.041,0.126,22.156,42.175,-13.855
-0.099,0.174,0.122,23.499,32.471,-23.926
-0.160,0.252,0.110,31.799,21.423,-30.945
-0.235,0.255,0.090,44.800,9.277,-36.133
-0.312,0.212,0.053,58.655,-2.686,-41.809
-0.395,0.168,0.016,70.435,-13.855,-48.828
-0.481,0.115,-0.023,78.918,-23.987,-55.237
-0.562,0.076,-0.078,83.313,-31.433,-59.937
-0.615,0.073,-0.137,83.557,-35.706,-64.087
-0.658,0.109,-0.214,80.933,-37.903,-68.176
-0.698,0.164,-0.277,77.942,-39.124,-72.083
-0.734,0.235,-0.318,76.172,-39.917,-75.378
-0.747,0.349,-0.332,77.148,-40.833,-78.064
-0.740,0.491,-0.347,82.458,-42.419,-80.261
-0.741,0.618,-0.373,93.994,-45.349,-81.360
-0.778,0.670,-0.386,111.694,-49.500,-81.482
-0.833,0.640,-0.390,131.592,-52.856,-82.275
-0.870,0.548,-0.386,150.696,-53.467,-84.106
-0.887,0.414,-0.392,164.612,-51.086,-86.060
-0.887,0.277,-0.404,171.265,-45.227,-87.158
-0.876,0.204,-0.422,169.617,-36.804,-89.417
-0.861,0.209,-0.408,161.377,-28.320,-93.628
-0.825,0.340,-0.388,151.489,-20.630,-98.267
-0.806,0.505,-0.339,146.057,-16.174,-101.501
-0.811,0.632,-0.294,147.888,-14.526,-102.600
-0.803,0.717,-0.258,156.494,-15.320,-100.830
-0.798,0.749,-0.246,170.776,-18.188,-97.961
-0.800,0.713,-0.245,187.683,-22.888,-96.130
-0.819,0.615,-0.256,202.393,-28.442,-96.924
-0.858,0.487,-0.258,211.609,-31.067,-100.464
-0.934,0.400,-0.235,213.379,-29.053,-105.103
-0.981,0.378,-0.200,208.130,-21.362,-109.802
-0.958,0.427,-0.197,199.402,-10.498,-112.549
-0.935,0.463,-0.168,191.589,-1.770,-111.267
-0.912,0.499,-0.136,186.157,4.395,-107.300
-0.869,0.540,-0.104,183.472,8.972,-102.966
-0.815,0.570,-0.088,183.533,11.230,-99.487
-0.791,0.570,-0.087,185.974,10.620,-95.093
-0.820,0.501,-0.070,189.636,8.972,-90.271
-0.849,0.465,-0.035,192.139,8.911,-85.999
-0.885,0.443,-0.007,192.627,12.634,-83.008
-0.935,0.435,0.039,191.284,18.616,-82.397
-0.980,0.375,0.074,188.416,26.794,-83.740
-0.980,0.356,0.124,183.655,33.508,-83.740
-0.949,0.337,0.138,178.223,38.452,-81.238
-0.941,0.314,0.162,171.692,40.283,-77.576
-0.924,0.310,0.177,163.818,40.710,-74.646
-0.883,0.322,0.190,154.968,39.551,-72.693
-0.836,0.304,0.191,145.386,36.377,-70.496
-0.828,0.269,0.179,135.010,30.884,-66.895
-0.868,0.215,0.183,122.559,24.963,-64.514
-0.908,0.190,0.205,107.300,20.874,-64.758
-0.926,0.209,0.219,90.210,20.874,-66.040
-0.942,0.237,0.253,73.608,22.644,-66.833
-0.927,0.300,0.277,59.204,24.719,-66.772
-0.884,0.356,0.298,48.462,25.574,-67.078
-0.845,0.412,0.323,41.626,24.292,-68.726
-0.817,0.453,0.334,38.330,20.874,-71.045
-0.796,0.467,0.349,37.842,16.724,-72.632
-0.794,0.454,0.340,38.147,12.329,-71.960
-0.759,0.464,0.332,37.598,9.583,-70.313
-0.767,0.415,0.325,36.072,6.836,-69.397
-0.778,0.406,0.317,32.898,3.540,-68.420
-0.814,0.387,0.337,27.710,2.197,-68.237
-0.835,0.389,0.336,21.179,3.418,-69.092
-0.826,0.405,0.337,14.343,6.348,-70.557
-0.809,0.437,0.346,8.606,8.240,-72.388
-0.785,0.476,0.360,4.761,9.216,-73.975
-0.741,0.538,0.382,2.930,8.972,-74.646
-0.703,0.579,0.392,3.113,7.263,-72.876
-0.694,0.634,0.404,4.883,4.028,-68.542
-0.693,0.653,0.417,7.935,1.038,-63.599
-0.713,0.643,0.412,10.925,-1.343,-58.777
-0.756,0.610,0.429,12.207,-2.441,-55.298
-0.784,0.571,0.450,10.437,-2.075,-53.650

-1.000,0.660,-1.093,-152.771,-42.969,-58.105
-1.156,0.595,-1.180,-151.428,-44.617,-46.204
-1.328,0.520,-1.290,-157.349,-41.260,-34.607
-1.495,0.491,-1.415,-171.448,-31.860,-24.170
-1.667,0.500,-1.528,-192.444,-17.090,-11.780
-1.764,0.601,-1.668,-217.712,0.916,3.723
-1.832,0.846,-1.818,-243.591,16.052,19.653
-1.977,1.195,-1.904,-264.893,26.245,32.837
-2.121,1.561,-1.975,-274.475,36.133,45.715
-2.249,1.841,-2.060,-270.020,49.377,58.228
-2.395,2.009,-2.160,-257.751,68.665,69.641
-2.433,2.073,-2.312,-243.591,95.337,82.031
-2.409,2.162,-2.515,-233.704,125.732,94.055
-2.343,2.341,-2.711,-229.370,157.227,104.248
-2.181,2.574,-2.939,-225.769,188.049,113.831
-1.970,2.812,-3.138,-218.262,216.675,123.474
-1.702,2.987,-3.301,-205.994,242.493,133.179
-1.386,3.018,-3.427,-190.552,265.930,142.090
-1.033,2.906,-3.529,-177.551,286.682,150.208
-0.665,2.792,-3.574,-170.959,304.565,157.166
-0.458,2.638,-3.554,-169.617,321.411,162.292
-0.195,2.481,-3.532,-173.828,343.872,165.405
0.192,2.382,-3.483,-179.382,371.643,163.330
0.527,2.387,-3.296,-179.871,391.602,155.273
0.730,2.397,-3.013,-168.396,399.048,144.592
0.831,2.293,-2.695,-144.104,397.583,136.414
0.894,2.114,-2.358,-112.854,390.808,130.310
0.955,1.901,-2.049,-80.750,381.104,125.000
1.037,1.633,-1.783,-53.040,368.408,122.437
1.135,1.339,-1.554,-32.410,350.281,122.253
1.217,1.014,-1.357,-21.240,326.965,122.742
1.236,0.696,-1.196,-21.484,299.866,123.169
1.196,0.458,-1.056,-32.349,271.179,123.047
1.098,0.352,-0.924,-50.415,243.225,120.728
1.004,0.352,-0.798,-69.092,218.018,116.577
0.921,0.386,-0.683,-81.848,196.167,111.328
0.844,0.382,-0.577,-85.571,176.575,105.469
0.744,0.343,-0.471,-82.214,158.569,98.145
0.646,0.307,-0.384,-73.914,142.517,88.928
0.530,0.263,-0.306,-62.195,127.930,77.942
0.392,0.219,-0.237,-48.218,114.563,66.162
0.252,0.187,-0.180,-33.081,102.417,53.833
0.129,0.157,-0.131,-17.212,91.980,41.748
0.004,0.104,-0.078,-2.563,82.458,31.311
-0.089,0.034,-0.045,10.498,73.608,23.743
-0.179,-0.072,-0.021,20.508,64.575,18.677
-0.246,-0.176,-0.011,24.719,55.176,14.526
-0.326,-0.270,-0.017,22.278,46.143,10.681
-0.404,-0.312,-0.024,13.977,37.354,6.714
-0.478,-0.310,-0.046,2.136,28.442,3.052
-0.563,-0.270,-0.073,-10.132,20.081,0.549
-0.649,-0.207,-0.089,-21.484,12.451,-1.587
-0.724,-0.096,-0.095,-29.358,6.165,-4.150
-0.778,0.029,-0.091,-31.738,1.892,-7.690
-0.805,0.152,-0.084,-27.405,-0.427,-11.169
-0.849,0.233,-0.084,-16.357,-1.404,-13.916
-0.839,0.263,-0.079,-0.977,-1.892,-15.869
-0.856,0.189,-0.099,15.259,-2.441,-15.930
-0.870,0.085,-0.107,27.466,-3.662,-15.991
-0.872,-0.002,-0.130,33.447,-4.944,-17.578
-0.853,-0.049,-0.150,33.813,-6.653,-19.531
-0.842,-0.079,-0.182,30.212,-9.888,-20.386
-0.851,-0.073,-0.188,23.560,-13.367,-20.020
-0.853,-0.041,-0.212,16.235,-15.259,-20.630
-0.837,-0.005,-0.234,9.888,-15.991,-22.339
-0.806,0.076,-0.244,6.165,-16.785,-24.048
-0.796,0.150,-0.254,6.409,-17.883,-26.062
-0.770,0.218,-0.271,10.559,-18.921,-28.259
-0.740,0.283,-0.295,18.127,-20.508,-30.396
-0.727,0.320,-0.310,28.442,-22.827,-32.898
-0.714,0.343,-0.320,40.466,-25.330,-36.560
-0.687,0.377,-0.326,53.101,-26.917,-41.870
-0.648,0.409,-0.342,66.650,-28.381,-47.180
-0.610,0.438,-0.359,80.994,-30.090,-52.124
-0.584,0.446,-0.377,96.130,-32.898,-57.251
-0.571,0.446,-0.396,111.084,-36.011,-63.538
-0.576,0.447,-0.403,125.000,-39.368,-70.129
-0.615,0.456,-0.391,138.367,-42.114,-76.050
-0.657,0.463,-0.382,152.100,-43.945,-81.238
-0.679,0.480,-0.376,165.466,-45.166,-85.510
-0.698,0.509,-0.375,179.321,-46.692,-90.088
-0.722,0.538,-0.392,193.726,-48.462,-94.788
-0.751,0.579,-0.411,208.801,-49.683,-100.403
-0.791,0.627,-0.418,225.037,-49.744,-106.689
-0.829,0.651,-0.442,243.042,-46.875,-112.854
-0.831,0.651,-0.465,261.353,-41.260,-118.469
-0.819,0.611,-0.495,278.931,-34.973,-123.108
-0.831,0.546,-0.507,293.579,-29.663,-127.075
-0.880,0.497,-0.492,303.589,-25.757,-131.042
-0.904,0.444,-0.458,307.983,-21.484,-135.864
-0.881,0.443,-0.425,307.861,-16.724,-141.052
-0.852,0.462,-0.391,304.016,-12.146,-144.958
-0.835,0.504,-0.365,298.706,-8.362,-146.667
-0.916,0.536,-0.334,293.335,-4.700,-146.057
-1.034,0.521,-0.285,287.903,1.831,-143.921
-1.061,0.493,-0.257,280.762,12.451,-141.785
-1.022,0.514,-0.245,271.240,23.315,-138.977
-1.019,0.527,-0.197,260.437,30.945,-136.047
-0.996,0.571,-0.144,248.962,36.072,-132.080
-0.975,0.625,-0.095,238.220,39.673,-127.380
-0.963,0.658,-0.033,229.065,42.480,-122.192
-0.958,0.670,0.020,221.436,45.227,-116.394
-0.962,0.697,0.056,216.064,48.523,-109.314
-0.975,0.696,0.110,213.013,52.185,-102.295
-1.012,0.677,0.170,210.693,56.580,-96.375
-0.970,0.701,0.213,208.130,61.951,-91.492
-0.987,0.602,0.279,204.529,64.697,-88.562
-0.916,0.588,0.308,199.341,65.308,-83.557
-0.899,0.554,0.370,192.444,63.782,-77.454
-0.861,0.552,0.415,184.265,60.120,-72.510
-0.791,0.583,0.453,176.514,55.786,-68.176
-0.753,0.544,0.464,171.021,49.194,-63.049
-0.733,0.539,0.469,167.908,40.771,-55.969
-0.754,0.490,0.485,165.161,33.142,-49.255
-0.803,0.409,0.483,161.072,27.527,-45.349
-0.819,0.344,0.474,153.748,24.719,-44.189
-0.911,0.148,0.555,142.090,23.132,-44.495
-0.853,0.108,0.543,123.596,23.621,-41.443
-0.866,0.116,0.604,101.563,22.644,-39.185

-0.923,0.734,-1.088,-215.454,-11.597,-32.349
-0.989,0.837,-1.102,-218.018,-5.859,-28.870
-1.049,0.976,-1.115,-218.445,0.122,-23.865
-1.104,1.069,-1.146,-216.064,6.714,-18.250
-1.153,1.180,-1.205,-212.158,12.878,-12.268
-1.209,1.260,-1.283,-207.703,18.494,-6.348
-1.296,1.288,-1.376,-205.872,24.597,0.488
-1.373,1.329,-1.467,-209.290,33.813,9.766
-1.416,1.429,-1.585,-218.384,45.715,18.494
-1.476,1.647,-1.729,-230.408,57.922,26.001
-1.566,1.874,-1.878,-239.807,72.327,33.386
-1.673,2.072,-2.026,-245.117,90.942,41.687
-1.707,2.234,-2.204,-245.789,114.136,51.758
-1.699,2.357,-2.405,-242.920,140.442,61.890
-1.685,2.491,-2.594,-237.488,167.664,69.641
-1.646,2.715,-2.736,-227.600,196.777,75.562
-1.586,2.833,-2.907,-211.975,230.957,81.299
-1.451,2.902,-3.060,-190.430,268.311,86.304
-1.264,2.893,-3.192,-167.847,306.213,92.224
-0.967,2.901,-3.274,-145.325,342.224,101.440
-0.622,2.804,-3.332,-122.437,373.047,114.624
-0.316,2.647,-3.311,-101.563,394.531,128.784
-0.044,2.498,-3.235,-83.496,406.738,143.494
0.169,2.283,-3.130,-69.763,412.048,157.104
0.352,2.086,-2.996,-61.157,413.574,170.288
0.531,1.903,-2.817,-58.167,413.513,180.786
0.702,1.771,-2.617,-57.800,410.950,187.012
0.852,1.684,-2.370,-56.335,404.785,189.270
0.972,1.597,-2.131,-51.575,394.531,189.514
1.079,1.488,-1.906,-43.640,380.005,189.392
1.129,1.343,-1.668,-33.203,360.474,189.331
1.160,1.167,-1.449,-22.522,337.769,188.354
1.186,0.979,-1.241,-14.526,314.392,186.462
1.207,0.823,-1.035,-10.620,290.771,182.495
1.225,0.685,-0.843,-9.766,265.747,176.575
1.206,0.536,-0.640,-10.254,239.014,169.983
1.161,0.377,-0.455,-12.085,211.975,162.964
1.090,0.199,-0.296,-15.320,186.218,155.273
0.997,0.005,-0.170,-20.264,162.598,146.057
0.850,-0.122,-0.053,-27.222,141.296,133.057
0.667,-0.160,0.034,-34.119,122.681,115.784
0.474,-0.145,0.104,-37.842,106.689,96.863
0.304,-0.118,0.155,-37.476,93.811,80.200
0.172,-0.079,0.202,-32.959,84.106,65.918
0.077,-0.033,0.223,-24.841,75.134,53.406
-0.010,-0.030,0.213,-14.648,65.125,42.847
-0.116,-0.069,0.197,-4.700,53.894,33.569
-0.225,-0.097,0.187,2.808,43.335,25.391
-0.317,-0.134,0.169,7.629,34.729,17.883
-0.377,-0.165,0.142,9.827,27.344,12.634
-0.435,-0.180,0.121,9.399,20.264,8.179
-0.472,-0.179,0.085,6.531,13.367,4.395
-0.533,-0.176,0.035,2.380,6.165,2.136
-0.631,-0.165,-0.003,-1.770,-0.610,1.160
-0.721,-0.154,-0.038,-5.249,-5.188,-0.061
-0.793,-0.135,-0.067,-8.240,-7.874,-1.038
-0.829,-0.113,-0.088,-9.888,-9.521,-2.136
-0.842,-0.080,-0.110,-9.216,-11.230,-3.113
-0.853,-0.043,-0.127,-6.165,-13.916,-4.272
-0.861,-0.027,-0.151,-1.831,-17.090,-6.409
-0.896,-0.019,-0.173,2.808,-20.264,-8.850
-0.937,-0.022,-0.195,6.470,-21.729,-10.681
-0.978,-0.044,-0.212,8.179,-21.240,-11.536
-1.004,-0.083,-0.225,7.935,-18.677,-11.414
-0.998,-0.059,-0.272,5.554,-14.648,-11.841
-0.932,-0.163,-0.251,3.540,-12.756,-12.817
-0.951,-0.112,-0.229,-1.465,-14.771,-12.512
-0.944,-0.054,-0.256,-5.676,-17.212,-14.038
-0.962,-0.002,-0.251,-6.714,-20.081,-16.907
-0.974,0.083,-0.239,-5.371,-22.217,-19.531
-1.001,0.104,-0.246,-1.282,-22.827,-21.912
-1.016,0.126,-0.247,4.639,-22.095,-22.522
-1.040,0.094,-0.257,11.353,-19.958,-22.400
-1.050,0.029,-0.271,16.479,-16.724,-22.644
-1.029,-0.017,-0.278,18.433,-13.489,-24.292
-0.999,-0.035,-0.282,17.822,-11.475,-26.978
-0.980,-0.020,-0.282,16.296,-11.780,-30.334
-0.981,0.022,-0.273,15.015,-13.428,-33.813
-0.970,0.080,-0.267,15.198,-14.587,-37.720
-0.944,0.150,-0.257,18.127,-15.808,-41.260
-0.901,0.202,-0.259,24.109,-17.639,-44.250
-0.868,0.195,-0.275,32.471,-20.508,-46.631
-0.868,0.147,-0.278,40.833,-23.926,-48.645
-0.856,0.118,-0.285,46.631,-25.818,-51.514
-0.855,0.125,-0.294,50.293,-26.245,-55.969
-0.885,0.149,-0.285,53.223,-26.123,-60.547
-0.907,0.163,-0.289,56.458,-25.757,-64.331
-0.911,0.220,-0.275,60.608,-25.208,-67.078
-0.893,0.291,-0.263,66.895,-25.208,-69.275
-0.864,0.340,-0.271,75.562,-26.428,-71.350
-0.845,0.359,-0.285,87.097,-29.480,-73.303
-0.851,0.353,-0.292,100.037,-34.180,-75.562
-0.889,0.364,-0.287,112.793,-37.842,-79.346
-0.943,0.362,-0.285,125.061,-39.429,-84.778
-0.989,0.361,-0.286,136.414,-37.415,-90.637
-1.025,0.359,-0.278,147.461,-32.043,-95.032
-0.994,0.357,-0.284,158.081,-24.597,-97.046
-0.972,0.337,-0.290,168.762,-18.677,-96.985
-0.958,0.313,-0.276,178.162,-15.381,-96.741
-0.926,0.306,-0.260,186.218,-14.587,-98.328
-0.877,0.352,-0.253,193.054,-16.357,-101.318
-0.914,0.414,-0.243,200.378,-20.935,-104.309
-0.988,0.439,-0.200,208.740,-25.452,-106.323
-1.046,0.430,-0.174,216.919,-26.062,-106.934
-1.087,0.400,-0.176,223.694,-22.156,-105.896
-1.068,0.380,-0.208,227.783,-13.733,-104.065
-1.041,0.354,-0.233,230.042,-4.578,-100.525
-0.990,0.327,-0.252,230.896,4.456,-96.497
-0.935,0.315,-0.257,230.164,12.390,-93.506
-0.941,0.298,-0.218,228.821,18.311,-92.407
-0.973,0.302,-0.163,227.356,23.621,-92.407
-1.008,0.296,-0.110,225.586,30.334,-93.689
-1.028,0.249,-0.075,223.450,37.231,-95.337
-1.028,0.192,-0.035,219.604,42.847,-96.008
-0.986,0.204,-0.011,212.097,46.814,-93.933
-0.958,0.235,-0.015,203.308,46.997,-89.783
-0.944,0.209,-0.023,193.787,43.823,-84.473
-0.966,0.162,-0.023,183.105,39.001,-79.529
-0.990,0.173,-0.023,170.166,35.767,-76.172

-0.995,0.508,-1.403,-156.250,-51.208,-51.514
-1.135,0.657,-1.462,-174.316,-46.631,-46.082
-1.296,0.830,-1.509,-187.439,-37.048,-37.659
-1.436,1.006,-1.548,-194.824,-22.034,-25.024
-1.572,1.137,-1.571,-196.167,-4.028,-11.475
-1.669,1.245,-1.626,-193.115,15.564,1.404
-1.779,1.355,-1.707,-186.829,34.058,14.160
-1.930,1.474,-1.776,-180.054,51.270,25.391
-2.061,1.612,-1.843,-174.805,70.618,36.743
-2.094,1.815,-1.948,-171.204,92.712,48.950
-2.102,2.014,-2.059,-168.640,113.892,62.012
-2.114,2.212,-2.184,-167.297,133.301,74.951
-2.100,2.399,-2.331,-168.396,153.259,89.111
-2.038,2.533,-2.539,-173.096,175.964,105.591
-1.959,2.607,-2.764,-182.129,200.500,122.559
-1.856,2.674,-2.989,-195.740,225.708,139.648
-1.680,2.804,-3.200,-210.083,251.160,154.297
-1.472,2.959,-3.379,-218.323,276.855,164.917
-1.255,3.093,-3.477,-216.675,302.368,172.913
-0.909,3.132,-3.574,-204.224,328.186,180.725
-0.548,2.962,-3.617,-186.096,350.586,187.988
-0.203,2.754,-3.599,-168.091,367.432,193.115
0.078,2.548,-3.516,-154.053,380.798,196.411
0.315,2.305,-3.388,-143.005,390.991,198.364
0.495,2.115,-3.180,-134.644,397.583,200.867
0.641,1.892,-2.928,-128.235,400.024,201.355
0.865,1.862,-2.612,-122.803,399.109,198.853
0.999,1.690,-2.337,-115.356,391.663,192.139
1.086,1.554,-2.026,-104.187,379.578,187.561
1.157,1.373,-1.738,-91.858,364.014,181.152
1.168,1.192,-1.450,-81.055,345.520,169.983
1.232,1.053,-1.168,-71.472,326.355,155.396
1.278,0.952,-0.894,-62.012,305.969,140.320
1.343,0.819,-0.668,-51.270,283.691,127.563
1.347,0.621,-0.457,-41.016,259.460,120.300
1.361,0.444,-0.283,-33.325,235.352,115.601
1.329,0.282,-0.117,-28.442,210.022,106.323
1.237,0.151,0.022,-25.513,184.021,92.407
1.099,0.057,0.133,-23.437,158.447,74.890
0.958,0.025,0.212,-21.484,134.888,56.641
0.807,0.029,0.258,-18.250,114.380,39.307
0.654,0.038,0.282,-13.245,95.886,23.987
0.512,0.039,0.287,-6.775,79.529,11.841
0.380,0.044,0.279,-0.061,65.918,3.479
0.253,0.026,0.262,7.324,53.162,-2.014
0.089,-0.035,0.240,13.428,40.894,-5.432
-0.063,-0.105,0.201,15.564,29.907,-8.484
-0.193,-0.155,0.144,13.062,20.203,-11.414
-0.311,-0.169,0.095,6.714,11.292,-13.367
-0.386,-0.124,0.041,-1.648,3.967,-14.648
-0.539,-0.110,0.042,-8.850,-1.282,-16.479
-0.634,-0.047,0.025,-12.756,-5.066,-18.311
-0.691,0.042,0.001,-12.695,-7.935,-19.348
-0.769,0.117,0.001,-7.751,-11.047,-22.034
-0.818,0.153,-0.023,0.549,-13.550,-24.414
-0.876,0.133,-0.057,11.230,-16.479,-23.865
-0.930,0.060,-0.101,20.142,-19.409,-20.691
-0.980,-0.044,-0.142,24.536,-21.606,-17.700
-1.001,-0.103,-0.165,22.278,-22.034,-16.235
-0.999,-0.137,-0.187,15.564,-21.301,-16.357
-0.980,-0.108,-0.190,7.446,-20.752,-17.151
-0.958,-0.060,-0.189,0.366,-20.752,-18.921
-0.955,0.038,-0.169,-3.418,-21.606,-21.423
-0.926,0.062,-0.189,-3.113,-22.217,-24.841
-0.944,0.127,-0.204,-0.122,-23.376,-27.710
-0.977,0.174,-0.217,4.333,-23.926,-29.053
-1.008,0.197,-0.223,10.071,-22.888,-30.090
-1.013,0.210,-0.233,16.724,-21.484,-30.884
-1.012,0.224,-0.231,23.254,-20.508,-31.860
-1.000,0.218,-0.224,29.907,-20.508,-33.203
-1.004,0.220,-0.216,36.194,-21.729,-34.546
-1.000,0.184,-0.212,42.358,-23.193,-36.194
-0.978,0.147,-0.215,47.180,-24.231,-38.147
-0.942,0.124,-0.222,50.720,-24.841,-40.588
-0.916,0.080,-0.239,52.673,-25.635,-43.457
-0.916,0.027,-0.255,52.673,-26.917,-45.776
-0.911,-0.031,-0.276,50.293,-27.954,-48.096
-0.907,-0.031,-0.294,45.166,-28.748,-50.903
-0.913,0.036,-0.290,39.063,-29.907,-54.138
-0.932,0.148,-0.274,35.889,-30.945,-57.983
-0.948,0.286,-0.236,37.964,-31.616,-62.073
-0.927,0.416,-0.207,46.875,-31.616,-65.125
-0.897,0.514,-0.188,63.110,-31.616,-66.589
-0.885,0.542,-0.185,84.717,-31.616,-67.688
-0.876,0.510,-0.217,108.276,-30.884,-68.970
-0.892,0.418,-0.248,130.859,-29.541,-70.740
-0.916,0.289,-0.281,149.414,-27.832,-72.754
-0.947,0.206,-0.305,162.720,-25.452,-74.524
-0.996,0.187,-0.297,171.143,-22.888,-77.393
-1.017,0.198,-0.277,176.880,-18.738,-81.299
-1.002,0.236,-0.249,181.763,-13.550,-85.022
-0.965,0.286,-0.215,186.768,-8.972,-86.731
-0.919,0.330,-0.193,193.176,-5.432,-86.060
-0.884,0.327,-0.192,201.111,-3.540,-83.740
-0.875,0.280,-0.204,208.191,-3.479,-81.421
-0.890,0.200,-0.225,212.158,-4.761,-80.933
-0.944,0.143,-0.215,211.853,-6.653,-82.458
-1.007,0.142,-0.183,207.642,-7.385,-84.961
-1.042,0.186,-0.151,201.843,-6.104,-88.074
-1.047,0.225,-0.145,196.289,-2.747,-90.515
-1.088,0.240,-0.080,191.223,2.258,-91.248
-0.999,0.277,-0.042,188.293,9.460,-89.050
-0.931,0.316,-0.041,187.012,14.893,-85.754
-0.883,0.296,-0.044,187.195,17.212,-82.153
-0.846,0.262,-0.047,187.500,16.541,-79.041
-0.811,0.243,-0.072,185.364,13.367,-77.576
-0.845,0.268,-0.068,180.908,8.057,-78.430
-0.935,0.298,-0.027,175.903,3.479,-80.566
-1.022,0.336,0.034,171.875,2.502,-82.214
-1.062,0.365,0.063,169.067,6.958,-81.665
-1.055,0.373,0.090,167.419,15.015,-78.918
-1.004,0.373,0.105,166.809,23.865,-73.608
-0.925,0.393,0.101,167.297,31.738,-67.810
-0.881,0.394,0.124,169.373,36.621,-62.927
-0.851,0.399,0.101,172.485,38.147,-58.533
-0.864,0.382,0.094,176.270,36.926,-56.580
-0.872,0.382,0.096,178.833,34.607,-56.152
-0.886,0.358,0.097,179.749,31.860,-56.335
-0.938,0.310,0.142,178.772,28.870,-55.603

-1.063,0.788,-1.044,-196.533,-59.570,-99.976
-1.246,0.858,-1.120,-195.557,-53.345,-88.867
-1.378,0.927,-1.212,-196.777,-44.006,-75.989
-1.492,0.989,-1.296,-200.012,-33.569,-62.439
-1.587,1.141,-1.377,-204.529,-22.888,-49.622
-1.664,1.310,-1.524,-206.604,-12.390,-36.926
-1.745,1.381,-1.689,-206.787,-3.540,-23.560
-1.836,1.487,-1.892,-208.923,5.859,-10.071
-1.920,1.573,-2.120,-215.088,18.677,3.296
-1.961,1.684,-2.382,-227.600,35.217,19.592
-1.992,1.986,-2.617,-245.239,55.786,35.706
-1.968,2.293,-2.849,-260.132,80.139,51.636
-1.911,2.578,-3.095,-268.372,108.826,67.505
-1.826,2.785,-3.283,-268.433,141.357,80.139
-1.621,2.935,-3.503,-261.780,178.650,87.158
-1.350,3.007,-3.731,-252.014,217.468,88.623
-1.088,3.120,-3.888,-242.371,254.517,88.928
-0.830,3.291,-3.975,-230.103,292.053,90.149
-0.597,3.466,-3.945,-208.923,330.811,92.224
-0.298,3.537,-3.817,-175.476,369.141,94.482
0.059,3.460,-3.626,-131.714,403.809,99.976
0.410,3.206,-3.418,-84.045,429.565,110.352
0.704,2.830,-3.209,-42.053,442.017,125.793
0.908,2.409,-2.975,-13.733,442.383,144.897
1.054,2.086,-2.733,-2.380,436.157,161.865
1.237,1.860,-2.515,-3.235,426.941,174.622
1.404,1.659,-2.306,-10.498,413.696,186.340
1.515,1.461,-2.099,-21.057,395.020,196.838
1.575,1.257,-1.906,-33.813,371.216,201.843
1.596,1.075,-1.734,-47.485,342.896,200.134
1.526,0.937,-1.570,-60.669,312.866,194.336
1.417,0.863,-1.400,-72.327,286.194,187.134
1.354,0.875,-1.218,-79.346,265.930,177.734
1.329,0.937,-1.008,-78.674,249.207,165.894
1.304,0.910,-0.828,-67.627,232.544,155.212
1.223,0.732,-0.677,-50.659,213.806,148.315
1.094,0.462,-0.557,-35.767,196.045,142.456
0.920,0.221,-0.447,-28.748,180.420,132.751
0.790,0.052,-0.370,-29.358,166.504,119.995
0.659,-0.023,-0.284,-34.485,153.625,106.812
0.527,-0.013,-0.182,-40.527,142.029,93.201
0.427,0.054,-0.083,-43.213,132.019,78.613
0.315,0.103,-0.012,-40.161,123.108,64.209
0.205,0.110,0.033,-32.532,113.831,51.514
0.062,0.087,0.066,-22.949,104.248,41.443
-0.058,0.040,0.095,-14.404,95.093,33.691
-0.167,-0.019,0.126,-7.935,85.327,28.992
-0.264,-0.107,0.150,-3.845,74.402,26.001
-0.354,-0.167,0.170,-3.174,63.354,22.278
-0.420,-0.201,0.181,-5.066,52.856,17.517
-0.497,-0.217,0.173,-9.338,43.396,14.099
-0.563,-0.201,0.151,-14.893,36.194,12.329
-0.612,-0.148,0.127,-20.630,30.823,10.071
-0.647,-0.066,0.115,-24.780,25.452,6.714
-0.698,0.001,0.095,-24.414,18.921,4.211
-0.751,0.022,0.068,-20.508,11.353,2.441
-0.797,0.050,0.047,-14.648,4.578,0.061
-0.815,0.048,0.017,-7.874,-0.305,-2.380
-0.834,0.042,-0.034,-1.953,-3.784,-3.418
-0.870,0.023,-0.062,2.197,-6.165,-3.540
-0.905,0.002,-0.083,3.418,-6.287,-4.150
-0.908,-0.017,-0.115,2.319,-5.005,-4.517
-0.938,-0.017,-0.126,-0.305,-3.540,-4.028
-0.949,-0.010,-0.122,-3.296,-1.648,-3.479
-0.937,0.024,-0.109,-4.944,0.061,-3.357
-0.927,0.066,-0.087,-4.883,0.549,-3.845
-0.917,0.112,-0.070,-1.648,-0.549,-4.517
-0.917,0.127,-0.064,4.700,-2.869,-5.432
-0.934,0.104,-0.072,12.207,-5.493,-6.042
-0.949,0.037,-0.084,18.250,-7.446,-5.920
-0.966,-0.031,-0.106,20.752,-8.118,-5.249
-0.968,-0.089,-0.121,19.165,-7.812,-4.761
-0.951,-0.123,-0.127,14.404,-7.629,-4.761
-0.931,-0.117,-0.137,8.301,-8.118,-4.883
-0.931,-0.090,-0.144,2.747,-10.132,-5.798
-0.942,-0.047,-0.152,-0.854,-12.329,-7.568
-0.948,-0.008,-0.157,-2.075,-13.977,-9.338
-0.947,0.032,-0.169,-1.221,-14.771,-10.376
-0.938,0.045,-0.191,1.526,-15.625,-11.292
-0.952,0.034,-0.214,5.371,-17.395,-12.268
-0.962,0.027,-0.220,8.301,-19.043,-13.794
-0.987,0.022,-0.242,10.376,-19.592,-14.587
-0.992,0.017,-0.270,11.719,-18.799,-14.526
-0.993,0.011,-0.289,12.085,-16.602,-14.526
-0.988,0.003,-0.298,11.841,-14.343,-15.198
-0.990,-0.008,-0.305,10.742,-12.817,-16.785
-0.986,0.008,-0.302,9.155,-11.902,-18.982
-0.974,0.051,-0.279,8.484,-11.902,-21.179
-0.956,0.070,-0.267,9.644,-12.512,-22.705
-0.933,0.094,-0.248,12.634,-14.038,-23.437
-0.908,0.116,-0.226,16.846,-16.785,-24.597
-0.899,0.133,-0.222,22.339,-20.325,-26.184
-0.882,0.156,-0.225,28.748,-23.865,-28.137
-0.882,0.204,-0.211,35.889,-26.733,-31.250
-0.929,0.206,-0.209,43.823,-28.198,-33.997
-0.947,0.194,-0.219,51.208,-26.367,-34.729
-0.934,0.170,-0.229,57.556,-22.034,-35.278
-0.882,0.148,-0.245,62.317,-17.822,-36.560
-0.828,0.134,-0.242,66.406,-16.235,-38.757
-0.779,0.112,-0.253,70.190,-17.456,-42.053
-0.738,0.112,-0.269,74.219,-21.362,-45.410
-0.747,0.114,-0.277,78.491,-27.222,-49.438
-0.760,0.139,-0.264,82.825,-32.837,-54.932
-0.818,0.187,-0.247,87.769,-37.109,-62.256
-0.881,0.238,-0.222,94.482,-39.185,-70.007
-0.928,0.270,-0.206,103.516,-37.842,-76.172
-0.954,0.269,-0.204,113.892,-32.898,-79.712
-0.932,0.240,-0.218,123.413,-25.208,-79.712
-0.874,0.185,-0.256,131.409,-17.700,-76.782
-0.807,0.120,-0.295,136.536,-13.367,-74.463
-0.784,0.101,-0.301,138.184,-12.939,-75.439
-0.832,0.114,-0.282,137.329,-15.198,-80.627
-0.875,0.164,-0.260,135.681,-17.456,-87.952
-0.927,0.242,-0.241,135.254,-18.616,-93.933
-0.962,0.296,-0.230,136.963,-19.348,-97.717
-1.000,0.327,-0.209,140.503,-19.409,-99.304
-1.019,0.345,-0.185,145.081,-18.433,-99.182
-1.007,0.336,-0.194,149.902,-16.785,-97.046
-0.998,0.299,-0.223,153.931,-15.320,-93.506

-0.962,0.726,-1.353,-261.841,-71.716,-88.257
-1.127,0.866,-1.392,-265.930,-67.810,-76.965
-1.298,0.954,-1.387,-263.611,-58.350,-62.683
-1.446,0.977,-1.378,-257.629,-44.312,-48.157
-1.578,0.994,-1.365,-251.099,-28.076,-35.156
-1.611,1.092,-1.446,-244.324,-12.878,-23.926
-1.702,1.184,-1.531,-237.183,-5.188,-14.771
-1.855,1.268,-1.622,-230.835,-1.038,-5.493
-1.968,1.381,-1.770,-226.318,5.676,5.493
-2.052,1.527,-1.934,-225.037,18.005,18.127
-2.108,1.683,-2.119,-228.638,35.522,32.471
-2.066,1.823,-2.339,-238.708,58.411,49.133
-2.009,1.968,-2.583,-255.432,81.848,67.444
-1.989,2.151,-2.819,-278.381,104.736,83.496
-1.928,2.410,-3.078,-303.894,127.991,94.910
-1.855,2.703,-3.349,-325.745,154.114,103.394
-1.801,2.970,-3.542,-338.928,185.608,109.192
-1.669,3.296,-3.615,-339.783,225.403,111.389
-1.342,3.545,-3.679,-323.425,272.339,110.474
-0.990,3.675,-3.635,-290.894,318.359,109.741
-0.560,3.626,-3.516,-246.826,356.567,110.229
-0.220,3.442,-3.328,-199.646,385.498,109.741
0.056,3.210,-3.131,-156.555,407.104,111.389
0.321,2.934,-2.929,-121.704,421.143,118.103
0.508,2.621,-2.691,-98.022,427.185,129.944
0.621,2.366,-2.399,-84.656,425.903,142.883
0.690,2.094,-2.184,-79.712,419.250,152.527
0.767,1.923,-1.918,-78.430,407.837,159.424
0.863,1.750,-1.678,-77.454,391.907,166.321
0.940,1.590,-1.459,-74.280,371.948,172.119
1.007,1.396,-1.279,-69.580,349.304,176.147
1.055,1.206,-1.119,-64.087,324.768,177.795
1.085,1.025,-0.973,-59.143,298.767,175.110
1.105,0.873,-0.818,-53.894,272.766,168.518
1.126,0.739,-0.657,-46.631,247.864,159.302
1.152,0.576,-0.512,-36.682,223.450,148.804
1.141,0.423,-0.372,-25.330,198.242,137.573
1.080,0.280,-0.240,-14.587,172.729,125.732
0.990,0.118,-0.142,-6.348,149.109,114.563
0.872,-0.029,-0.070,-2.441,128.418,103.699
0.720,-0.153,-0.011,-3.113,110.291,92.041
0.583,-0.228,0.036,-7.385,93.384,79.773
0.428,-0.269,0.070,-14.160,76.599,68.054
0.258,-0.290,0.078,-21.362,59.753,57.251
0.083,-0.249,0.077,-27.893,44.373,46.570
-0.068,-0.158,0.079,-31.616,31.311,35.767
-0.225,-0.078,0.072,-30.396,19.714,26.672
-0.357,-0.045,0.037,-25.024,9.521,20.874
-0.473,-0.039,-0.000,-17.212,1.831,17.395
-0.583,-0.078,-0.035,-9.460,-3.357,14.771
-0.630,-0.098,-0.076,-3.845,-6.104,12.024
-0.747,-0.153,-0.101,-0.977,-7.263,9.216
-0.790,-0.155,-0.124,1.160,-8.179,7.324
-0.819,-0.158,-0.146,1.709,-9.705,6.714
-0.844,-0.176,-0.188,0.916,-12.024,5.432
-0.870,-0.149,-0.211,-0.916,-14.099,2.869
-0.895,-0.115,-0.233,-2.075,-14.771,-0.549
-0.928,-0.112,-0.239,-3.235,-13.428,-3.235
-0.945,-0.088,-0.240,-4.089,-9.949,-4.456
-0.930,-0.077,-0.239,-4.272,-5.798,-5.859
-0.919,-0.070,-0.223,-3.723,-3.418,-7.935
-0.895,-0.071,-0.221,-2.380,-3.662,-10.681
-0.906,-0.045,-0.213,-0.793,-6.470,-13.733
-0.926,-0.030,-0.215,1.221,-10.132,-16.846
-0.952,-0.022,-0.208,3.906,-13.000,-19.775
-0.964,-0.015,-0.217,6.348,-14.771,-22.339
-0.973,-0.008,-0.216,8.179,-15.442,-24.597
-0.977,0.016,-0.212,9.827,-15.076,-27.039
-0.964,0.014,-0.216,11.902,-14.526,-29.724
-0.958,0.001,-0.229,13.245,-14.771,-30.884
-0.965,-0.004,-0.237,13.306,-15.381,-30.762
-0.961,-0.011,-0.257,12.146,-16.113,-30.579
-0.969,-0.011,-0.270,10.315,-17.395,-30.701
-0.988,0.003,-0.278,8.728,-19.043,-31.677
-1.000,0.042,-0.278,8.179,-20.630,-32.654
-1.011,0.080,-0.282,9.888,-21.912,-32.837
-1.010,0.105,-0.283,14.343,-23.621,-33.142
-1.006,0.106,-0.290,20.142,-25.024,-34.790
-1.012,0.103,-0.291,26.306,-26.245,-37.292
-1.009,0.113,-0.288,31.982,-26.550,-39.673
-0.983,0.121,-0.304,37.476,-25.452,-41.504
-0.937,0.145,-0.314,42.236,-24.658,-42.908
-0.910,0.175,-0.317,46.997,-24.536,-44.067
-0.888,0.205,-0.328,51.758,-25.024,-44.739
-0.867,0.226,-0.336,57.007,-26.367,-45.166
-0.866,0.242,-0.355,62.500,-28.687,-45.532
-0.862,0.257,-0.364,68.481,-31.616,-46.204
-0.874,0.283,-0.360,74.890,-34.363,-47.668
-0.874,0.300,-0.377,82.153,-35.767,-50.049
-0.879,0.312,-0.397,90.271,-36.194,-52.795
-0.899,0.317,-0.399,98.877,-35.217,-55.786
-0.910,0.349,-0.397,107.788,-31.921,-58.899
-0.906,0.410,-0.389,117.188,-26.611,-62.866
-0.877,0.488,-0.391,128.479,-20.569,-66.467
-0.875,0.533,-0.390,142.456,-15.320,-68.359
-0.884,0.547,-0.377,158.203,-10.498,-69.336
-0.860,0.532,-0.366,174.377,-5.615,-70.068
-0.820,0.497,-0.367,189.697,-1.709,-71.167
-0.794,0.437,-0.375,203.308,0.671,-72.937
-0.795,0.365,-0.379,213.440,2.686,-75.684
-0.821,0.293,-0.367,219.421,5.188,-80.383
-0.833,0.255,-0.359,221.497,8.606,-85.938
-0.823,0.246,-0.358,221.191,11.658,-90.637
-0.826,0.254,-0.352,219.482,13.672,-93.933
-0.841,0.282,-0.332,217.285,14.526,-96.191
-0.852,0.344,-0.301,215.637,15.808,-97.534
-0.870,0.374,-0.264,215.271,18.494,-98.328
-0.867,0.411,-0.248,216.064,22.766,-98.389
-0.868,0.449,-0.232,218.079,28.503,-97.534
-0.912,0.479,-0.215,220.642,35.217,-96.802
-0.949,0.474,-0.175,224.121,42.542,-96.008
-0.921,0.462,-0.165,226.868,49.927,-94.299
-0.898,0.438,-0.138,228.027,55.237,-91.858
-0.896,0.396,-0.102,227.539,57.800,-89.417
-0.896,0.365,-0.044,224.487,58.105,-87.341
-0.870,0.354,0.012,219.666,56.824,-85.205
-0.852,0.333,0.057,213.562,54.993,-83.435
-0.823,0.316,0.087,206.482,52.551,-81.726
-0.822,0.294,0.106,199.036,49.805,-79.712

-1.046,1.016,-0.817,-167.297,-13.977,-51.208
-1.199,1.061,-0.899,-184.570,-12.695,-39.001
-1.317,1.161,-1.013,-202.942,-7.446,-25.269
-1.406,1.305,-1.153,-220.398,0.061,-11.108
-1.487,1.439,-1.318,-236.267,7.996,2.563
-1.582,1.642,-1.473,-249.390,16.479,19.226
-1.671,1.860,-1.607,-257.568,27.222,37.292
-1.797,2.010,-1.740,-259.033,40.405,56.396
-1.929,2.130,-1.851,-254.700,56.763,75.562
-2.019,2.216,-1.981,-247.375,77.271,92.896
-2.055,2.343,-2.119,-239.441,102.295,108.276
-2.041,2.506,-2.294,-230.652,129.883,122.803
-1.928,2.672,-2.489,-221.619,160.583,138.062
-1.761,2.792,-2.709,-211.975,192.566,153.687
-1.564,2.869,-2.902,-203.613,222.290,169.434
-1.378,2.887,-3.050,-197.510,249.207,186.157
-1.164,2.845,-3.163,-196.411,274.414,203.979
-0.897,2.814,-3.248,-202.148,299.072,220.154
-0.580,2.762,-3.327,-214.172,321.960,231.506
-0.273,2.697,-3.359,-230.347,342.102,237.915
-0.045,2.615,-3.318,-246.765,358.459,239.624
0.232,2.569,-3.285,-259.216,372.864,235.596
0.559,2.582,-3.156,-262.817,383.240,225.769
0.903,2.621,-2.954,-253.662,388.245,212.891
1.198,2.575,-2.696,-231.689,386.902,198.425
1.401,2.482,-2.384,-199.402,383.057,185.303
1.645,2.348,-2.083,-159.485,379.822,175.110
1.834,2.128,-1.787,-117.188,372.681,168.518
1.959,1.820,-1.490,-76.721,357.605,164.429
2.003,1.454,-1.216,-43.030,335.388,161.255
2.061,1.020,-0.999,-18.555,308.411,158.447
2.071,0.600,-0.790,-6.042,273.926,154.480
2.001,0.259,-0.569,-6.042,234.253,145.813
1.804,-0.036,-0.384,-16.479,193.970,132.935
1.510,-0.260,-0.234,-34.790,159.851,118.652
1.192,-0.356,-0.137,-57.739,136.108,104.431
0.900,-0.301,-0.048,-80.566,120.850,90.027
0.604,-0.155,0.063,-98.022,111.084,75.806
0.336,0.003,0.163,-106.384,105.347,62.012
0.120,0.150,0.249,-103.821,101.074,47.913
-0.038,0.276,0.330,-91.003,95.703,32.349
-0.207,0.313,0.365,-69.397,87.341,17.090
-0.393,0.275,0.378,-42.664,75.623,3.418
-0.579,0.193,0.384,-17.395,62.622,-7.080
-0.699,0.090,0.353,3.357,50.049,-14.343
-0.824,-0.015,0.316,17.456,38.086,-18.555
-0.938,-0.084,0.282,23.315,28.748,-21.729
-1.017,-0.121,0.246,22.583,24.292,-25.330
-1.052,-0.155,0.211,17.029,22.766,-28.992
-1.077,-0.141,0.158,6.958,20.447,-30.762
-1.058,-0.078,0.118,-3.662,18.127,-32.471
-1.016,-0.001,0.083,-12.634,12.634,-33.569
-1.006,0.098,0.032,-17.639,4.028,-33.203
-1.037,0.212,0.003,-17.151,-4.333,-32.288
-1.071,0.310,0.002,-11.719,-9.949,-31.189
-1.092,0.346,-0.038,-2.625,-11.780,-28.687
-1.132,0.339,-0.071,8.240,-10.864,-25.696
-1.127,0.290,-0.110,18.860,-8.240,-23.071
-1.087,0.229,-0.155,27.649,-5.920,-21.729
-1.040,0.161,-0.195,33.508,-6.409,-20.752
-1.004,0.111,-0.235,35.889,-9.399,-19.226
-1.009,0.076,-0.260,34.424,-14.404,-17.151
-1.026,0.048,-0.273,29.968,-18.250,-14.893
-1.052,0.034,-0.279,23.499,-19.531,-12.024
-1.027,0.140,-0.235,15.930,-18.005,-8.911
-1.060,0.063,-0.257,11.658,-15.198,-7.263
-1.058,0.066,-0.249,9.277,-14.160,-4.578
-1.038,0.047,-0.230,7.202,-13.916,-2.625
-1.000,0.023,-0.236,7.019,-14.343,-2.686
-0.971,0.014,-0.226,7.874,-15.747,-3.601
-0.962,0.012,-0.222,9.033,-17.639,-4.822
-0.955,0.027,-0.227,10.986,-19.165,-6.226
-0.935,0.040,-0.238,13.550,-20.447,-7.507
-0.930,0.041,-0.248,16.418,-22.705,-8.606
-0.930,0.030,-0.251,18.555,-24.963,-10.315
-0.926,0.021,-0.261,20.081,-26.489,-12.512
-0.912,0.014,-0.268,20.752,-27.649,-14.648
-0.885,0.000,-0.280,20.752,-28.809,-16.602
-0.867,-0.008,-0.295,19.592,-30.151,-18.494
-0.874,0.006,-0.308,17.517,-31.677,-21.057
-0.880,0.037,-0.308,15.198,-32.532,-24.353
-0.891,0.087,-0.310,13.855,-32.654,-28.381
-0.891,0.141,-0.317,14.099,-31.738,-32.715
-0.891,0.182,-0.325,16.235,-30.334,-37.231
-0.865,0.223,-0.329,19.775,-28.870,-41.443
-0.824,0.255,-0.343,24.475,-28.015,-44.678
-0.790,0.274,-0.353,30.334,-28.625,-46.753
-0.760,0.268,-0.351,37.415,-30.457,-47.852
-0.728,0.212,-0.367,44.189,-32.410,-48.157
-0.699,0.148,-0.386,48.767,-34.790,-48.950
-0.699,0.095,-0.387,49.255,-37.048,-51.392
-0.680,0.040,-0.390,45.654,-37.415,-55.176
-0.653,0.023,-0.395,38.452,-35.461,-59.265
-0.638,0.033,-0.393,29.175,-32.349,-62.988
-0.650,0.058,-0.383,20.142,-28.992,-66.589
-0.631,0.104,-0.374,11.719,-26.917,-70.007
-0.575,0.160,-0.371,5.615,-27.100,-71.899
-0.543,0.199,-0.400,2.197,-32.532,-71.777
-0.566,0.198,-0.430,0.488,-42.419,-69.763
-0.623,0.194,-0.440,-1.221,-53.894,-67.810
-0.659,0.199,-0.461,-3.052,-63.660,-67.017
-0.673,0.217,-0.499,-5.066,-70.557,-67.383
-0.716,0.282,-0.512,-6.531,-75.134,-68.420
-0.783,0.402,-0.500,-6.042,-76.904,-70.374
-0.839,0.500,-0.486,-2.136,-75.623,-72.815
-0.865,0.587,-0.470,5.615,-72.754,-73.914
-0.863,0.652,-0.452,17.517,-69.702,-73.059
-0.840,0.693,-0.437,31.677,-67.810,-70.435
-0.815,0.696,-0.444,47.302,-67.932,-66.711
-0.801,0.652,-0.475,63.171,-70.374,-63.782
-0.815,0.603,-0.489,76.843,-74.158,-63.782
-0.830,0.574,-0.500,87.463,-76.477,-65.918
-0.859,0.531,-0.536,95.703,-77.454,-67.444
-0.910,0.516,-0.552,102.539,-77.393,-68.848
-0.950,0.543,-0.555,108.032,-73.853,-72.083
-1.005,0.604,-0.529,113.281,-66.589,-77.393
-1.014,0.690,-0.491,120.361,-56.213,-82.947
-0.973,0.773,-0.474,131.165,-44.800,-85.815
-0.911,0.841,-0.450,146.118,-36.011,-85.510

-0.450,1.004,-1.183,-171.448,-41.931,-95.276
-0.476,1.004,-1.262,-151.184,-32.471,-93.506
-0.564,1.071,-1.308,-135.315,-25.269,-93.445
-0.713,1.176,-1.340,-123.474,-18.005,-89.844
-0.822,1.229,-1.397,-111.328,-7.507,-81.421
-0.901,1.185,-1.474,-102.234,4.822,-72.144
-0.962,1.152,-1.561,-102.295,17.578,-64.270
-0.967,1.221,-1.658,-112.366,29.541,-56.580
-0.980,1.411,-1.754,-127.808,38.330,-46.814
-1.160,1.629,-1.819,-142.578,45.593,-33.630
-1.348,1.848,-1.868,-153.076,59.204,-18.250
-1.438,2.026,-1.904,-158.081,81.177,-3.479
-1.429,2.227,-1.935,-156.738,107.971,12.573
-1.409,2.331,-1.943,-147.705,133.606,30.029
-1.391,2.364,-1.953,-135.010,156.189,47.424
-1.370,2.339,-1.979,-124.878,176.941,63.538
-1.329,2.321,-2.024,-123.108,196.411,79.285
-1.291,2.351,-2.106,-132.385,213.562,100.220
-1.236,2.422,-2.214,-151.917,228.699,125.244
-1.146,2.628,-2.276,-175.781,243.896,148.376
-1.006,2.873,-2.350,-194.946,258.179,166.809
-0.927,3.118,-2.402,-203.491,271.667,183.105
-0.865,3.324,-2.375,-198.975,288.208,197.266
-0.662,3.484,-2.365,-181.091,310.669,207.336
-0.392,3.477,-2.327,-153.503,332.642,216.675
-0.103,3.344,-2.274,-123.352,348.450,228.149
0.168,3.144,-2.212,-97.107,356.873,238.770
0.393,2.906,-2.159,-79.224,358.398,246.155
0.546,2.727,-2.048,-69.397,353.333,250.183
0.690,2.583,-1.902,-64.087,343.506,250.977
0.791,2.387,-1.745,-59.509,330.078,250.122
0.845,2.179,-1.587,-56.152,312.927,248.718
0.858,1.962,-1.413,-55.969,294.067,245.239
0.849,1.755,-1.250,-58.960,276.001,239.380
0.892,1.626,-1.106,-63.477,260.864,234.192
0.942,1.541,-0.973,-65.979,245.239,228.638
0.941,1.409,-0.854,-62.622,226.074,222.168
0.871,1.240,-0.740,-54.749,204.773,213.989
0.804,1.064,-0.643,-44.739,184.814,202.576
0.769,0.876,-0.548,-34.180,167.114,188.965
0.742,0.682,-0.437,-24.231,150.146,174.255
0.690,0.485,-0.346,-16.052,134.094,159.119
0.615,0.329,-0.267,-11.230,119.507,143.982
0.538,0.222,-0.201,-8.423,106.567,129.517
0.434,0.130,-0.151,-5.432,94.543,115.967
0.326,0.036,-0.119,-2.075,83.618,101.624
0.240,-0.049,-0.111,1.221,74.219,85.938
0.156,-0.101,-0.108,3.723,65.002,69.824
0.051,-0.134,-0.102,5.371,56.030,54.504
-0.064,-0.145,-0.097,6.165,48.645,41.138
-0.162,-0.129,-0.092,6.714,42.847,30.579
-0.258,-0.099,-0.094,7.324,39.001,22.888
-0.332,-0.050,-0.115,9.460,35.950,16.174
-0.404,-0.011,-0.130,13.245,33.020,9.766
-0.468,-0.001,-0.137,18.433,29.480,3.906
-0.515,-0.023,-0.161,23.743,26.062,-0.610
-0.580,-0.053,-0.181,26.672,22.339,-3.540
-0.642,-0.072,-0.196,26.978,18.921,-5.371
-0.687,-0.066,-0.207,25.574,16.174,-8.362
-0.734,-0.040,-0.208,23.560,13.733,-12.329
-0.768,-0.047,-0.211,22.034,11.597,-15.686
-0.787,-0.070,-0.237,19.470,9.521,-16.907
-0.800,-0.077,-0.276,15.015,7.080,-17.212
-0.820,-0.066,-0.298,8.423,4.150,-17.639
-0.852,-0.037,-0.320,1.953,1.343,-18.494
-0.866,0.016,-0.326,-2.869,-0.549,-20.203
-0.887,0.103,-0.321,-4.944,-1.465,-22.339
-0.901,0.182,-0.313,-3.540,-1.709,-24.780
-0.924,0.260,-0.291,1.648,-1.221,-26.672
-0.941,0.308,-0.279,10.803,-0.671,-27.954
-0.935,0.317,-0.281,22.583,0.305,-28.748
-0.934,0.281,-0.289,34.424,1.221,-29.480
-0.918,0.251,-0.292,44.434,1.526,-30.029
-0.915,0.216,-0.297,52.490,1.648,-30.701
-0.899,0.183,-0.297,58.167,2.380,-30.823
-0.853,0.158,-0.294,62.073,3.418,-31.799
-0.830,0.162,-0.281,63.599,3.723,-34.058
-0.798,0.194,-0.258,64.575,3.235,-37.415
-0.774,0.235,-0.243,66.284,2.930,-41.321
-0.759,0.260,-0.231,69.519,1.953,-45.105
-0.759,0.275,-0.224,73.669,0.061,-48.157
-0.758,0.290,-0.244,78.613,-1.953,-51.270
-0.791,0.280,-0.246,83.679,-4.639,-54.382
-0.812,0.255,-0.235,88.013,-6.836,-57.800
-0.835,0.238,-0.252,92.407,-6.653,-60.242
-0.870,0.214,-0.218,94.971,-5.249,-62.561
-0.861,0.208,-0.209,97.473,-2.380,-65.552
-0.820,0.196,-0.206,99.426,0.671,-69.702
-0.780,0.209,-0.191,101.379,1.404,-74.341
-0.752,0.249,-0.190,103.699,-0.122,-79.773
-0.740,0.305,-0.211,107.056,-2.930,-85.510
-0.783,0.344,-0.225,111.633,-6.592,-90.149
-0.845,0.362,-0.222,116.760,-9.216,-93.506
-0.896,0.369,-0.208,120.728,-8.423,-96.069
-0.936,0.357,-0.189,123.718,-4.761,-95.947
-0.949,0.341,-0.176,124.939,0.488,-93.201
-0.954,0.319,-0.146,123.901,5.981,-90.820
-0.928,0.286,-0.125,121.277,10.437,-90.332
-0.869,0.295,-0.117,116.699,12.695,-92.163
-0.824,0.307,-0.117,111.877,11.902,-95.215
-0.789,0.349,-0.104,107.422,8.423,-98.145
-0.757,0.404,-0.101,104.797,4.028,-100.403
-0.792,0.454,-0.087,104.126,-0.427,-101.990
-0.872,0.494,-0.052,105.225,-3.479,-103.638
-0.940,0.502,-0.022,107.056,-3.052,-104.919
-1.002,0.475,0.006,107.788,-0.183,-104.065
-1.004,0.448,0.013,106.201,5.615,-100.647
-0.961,0.427,0.013,102.356,11.169,-96.436
-0.911,0.420,0.013,96.985,13.672,-93.445
-0.889,0.441,0.033,91.492,13.184,-92.529
-0.868,0.487,0.049,86.548,11.353,-93.140
-0.873,0.543,0.079,83.618,9.399,-93.140
-0.890,0.594,0.123,83.252,8.606,-91.675
-0.879,0.632,0.144,85.693,9.644,-88.745
-0.903,0.654,0.170,90.454,10.925,-84.961
-0.937,0.637,0.182,96.069,12.146,-80.811
-0.949,0.602,0.172,101.563,14.038,-76.111
-0.950,0.595,0.159,106.323,15.381,-72.266
-0.931,0.579,0.132,110.596,15.625,-69.641

-0.602,1.129,-0.999,-189.636,23.560,-28.870
-0.671,1.204,-1.017,-181.030,27.649,-19.592
-0.746,1.277,-1.034,-170.898,32.776,-12.146
-0.845,1.376,-1.050,-159.912,39.551,-6.653
-0.966,1.470,-1.053,-148.071,48.645,-2.075
-1.083,1.529,-1.025,-135.193,60.608,5.310
-1.126,1.575,-1.036,-122.864,74.219,15.869
-1.182,1.554,-1.069,-113.403,85.266,27.405
-1.270,1.544,-1.111,-111.023,91.614,38.818
-1.409,1.636,-1.180,-117.004,95.154,49.011
-1.577,1.856,-1.248,-128.540,99.304,60.913
-1.727,2.071,-1.384,-142.822,106.812,77.942
-1.770,2.291,-1.604,-158.386,117.310,100.586
-1.781,2.463,-1.889,-175.171,127.441,123.535
-1.788,2.596,-2.208,-193.176,138.916,145.020
-1.826,2.714,-2.512,-211.670,152.893,165.344
-1.834,2.885,-2.763,-227.661,173.767,184.204
-1.727,3.076,-2.969,-237.244,202.820,201.050
-1.513,3.303,-3.127,-237.610,237.671,216.248
-1.187,3.467,-3.237,-226.868,273.499,231.445
-0.840,3.470,-3.276,-206.055,306.885,246.216
-0.460,3.312,-3.273,-181.335,335.327,259.216
-0.091,3.089,-3.205,-159.607,356.506,268.372
0.223,2.826,-3.048,-145.386,370.117,273.437
0.484,2.560,-2.860,-139.587,377.991,277.588
0.680,2.321,-2.645,-142.151,380.371,281.372
0.844,2.116,-2.375,-150.330,377.136,281.372
1.062,1.963,-2.099,-160.095,369.507,277.283
1.260,1.794,-1.817,-167.786,356.445,270.691
1.441,1.596,-1.535,-171.875,337.952,261.536
1.502,1.360,-1.253,-173.645,314.514,247.986
1.467,1.185,-0.964,-174.377,290.222,231.750
1.476,1.107,-0.707,-172.241,269.897,213.013
1.516,1.053,-0.501,-163.696,250.916,194.214
1.510,0.982,-0.306,-147.156,228.638,175.720
1.428,0.869,-0.136,-124.023,201.843,157.410
1.303,0.749,0.002,-96.680,173.340,138.733
1.156,0.619,0.096,-67.932,145.142,118.713
1.004,0.485,0.131,-40.710,118.713,98.816
0.786,0.341,0.158,-18.066,95.581,79.773
0.553,0.187,0.153,-2.258,79.468,64.758
0.381,0.060,0.123,6.897,69.946,53.528
0.202,-0.041,0.107,10.742,61.462,43.762
0.011,-0.159,0.085,10.681,51.147,34.363
-0.157,-0.237,0.047,7.690,39.001,25.635
-0.314,-0.252,0.008,2.686,25.391,17.212
-0.446,-0.225,-0.025,-1.892,11.780,8.789
-0.564,-0.158,-0.053,-4.150,0.366,0.671
-0.723,-0.103,-0.066,-3.418,-7.019,-5.493
-0.890,-0.074,-0.087,-0.366,-8.972,-8.240
-0.998,-0.055,-0.115,4.456,-5.371,-7.141
-1.022,-0.065,-0.140,9.949,0.610,-5.920
-1.009,-0.103,-0.176,15.137,5.249,-5.920
-0.997,-0.141,-0.204,18.555,5.920,-7.202
-1.003,-0.156,-0.214,19.958,2.930,-8.606
-1.013,-0.165,-0.230,20.630,-1.404,-9.094
-1.016,-0.134,-0.264,20.935,-5.432,-10.315
-1.053,-0.187,-0.241,21.301,-9.033,-13.306
-1.083,-0.213,-0.257,20.569,-10.925,-14.587
-1.141,-0.215,-0.235,18.066,-10.376,-15.137
-1.130,-0.204,-0.246,15.930,-6.775,-17.578
-1.081,-0.160,-0.254,14.771,-2.869,-20.691
-1.046,-0.099,-0.245,16.724,-1.404,-23.376
-1.029,-0.012,-0.248,21.790,-2.136,-26.306
-0.992,0.001,-0.260,30.884,-3.967,-29.175
-0.985,0.076,-0.250,42.053,-6.714,-31.006
-0.975,0.112,-0.273,54.565,-9.644,-32.776
-0.990,0.120,-0.289,68.726,-12.512,-34.973
-1.036,0.091,-0.292,82.764,-13.794,-37.903
-1.047,0.041,-0.312,94.177,-11.719,-41.016
-1.022,0.002,-0.328,102.234,-7.324,-43.457
-0.976,0.011,-0.344,107.666,-3.845,-44.983
-0.923,0.036,-0.351,111.816,-1.831,-46.997
-0.877,0.096,-0.349,115.662,-1.770,-49.316
-0.856,0.170,-0.356,121.033,-3.296,-51.880
-0.869,0.268,-0.351,129.150,-5.554,-55.359
-0.888,0.349,-0.338,140.747,-7.141,-60.364
-0.877,0.422,-0.337,156.006,-7.202,-65.796
-0.873,0.472,-0.345,174.377,-5.432,-70.557
-0.863,0.521,-0.357,195.557,-1.587,-73.547
-0.839,0.535,-0.373,218.201,3.906,-75.378
-0.832,0.502,-0.399,241.211,10.193,-75.623
-0.817,0.458,-0.420,262.207,16.052,-75.684
-0.805,0.393,-0.462,280.579,20.569,-76.294
-0.831,0.311,-0.482,294.434,22.522,-78.674
-0.861,0.205,-0.495,302.063,23.682,-82.397
-0.898,0.128,-0.475,302.734,26.123,-86.243
-0.895,0.046,-0.458,296.204,30.457,-89.905
-0.869,0.020,-0.435,284.912,35.339,-92.407
-0.826,0.022,-0.415,270.691,39.734,-93.445
-0.830,0.061,-0.383,255.920,43.152,-94.299
-0.853,0.116,-0.338,242.432,46.265,-96.252
-0.877,0.197,-0.294,230.957,50.781,-98.755
-0.903,0.280,-0.224,222.839,56.824,-100.891
-0.905,0.358,-0.144,218.140,64.636,-101.807
-0.867,0.396,-0.099,216.370,72.754,-100.098
-0.835,0.387,-0.064,216.858,78.674,-95.764
-0.795,0.351,-0.040,217.407,81.177,-90.454
-0.773,0.303,-0.033,216.553,80.994,-86.609
-0.796,0.256,-0.022,213.623,79.468,-84.473
-0.827,0.213,-0.026,208.923,78.247,-82.397
-0.835,0.154,-0.019,202.881,78.186,-80.383
-0.864,0.112,0.013,194.214,79.407,-79.041
-0.877,0.082,0.048,182.312,83.740,-78.125
-0.842,0.087,0.085,168.762,89.661,-78.125
-0.767,0.116,0.118,155.090,95.154,-78.003
-0.717,0.148,0.150,143.127,97.107,-76.660
-0.700,0.151,0.178,133.240,95.337,-75.073
-0.685,0.141,0.193,124.756,91.187,-75.073
-0.696,0.116,0.204,116.760,84.534,-75.989
-0.734,0.107,0.227,108.276,77.393,-77.209
-0.780,0.105,0.278,99.243,71.228,-78.308
-0.824,0.120,0.330,89.539,68.054,-78.552
-0.834,0.144,0.377,80.017,67.993,-77.515
-0.806,0.178,0.400,71.228,70.190,-75.195
-0.764,0.209,0.408,63.965,71.289,-72.083
-0.724,0.231,0.410,58.655,70.007,-69.397
-0.719,0.227,0.423,54.382,66.467,-67.871
-0.730,0.211,0.452,50.476,61.584,-68.054

-0.749,0.789,-1.118,-22.827,22.217,-58.228
-0.789,0.693,-1.187,-1.709,31.006,-53.955
-0.835,0.715,-1.271,13.000,38.086,-49.316
-0.834,0.855,-1.405,24.475,43.701,-46.875
-0.846,0.995,-1.589,35.767,47.913,-47.607
-0.923,1.204,-1.773,47.668,53.833,-47.302
-0.958,1.427,-1.995,60.913,65.918,-43.701
-1.024,1.619,-2.218,74.158,85.754,-34.424
-1.002,1.883,-2.454,85.144,114.136,-18.250
-0.940,2.244,-2.661,96.558,146.667,1.526
-0.825,2.634,-2.843,112.061,177.246,23.437
-0.718,3.049,-2.949,135.010,214.172,48.645
-0.514,3.288,-3.205,162.048,228.821,79.834
-0.517,3.299,-3.218,185.303,225.769,114.624
-0.448,3.278,-3.213,194.214,255.188,151.123
-0.266,3.347,-3.182,184.631,278.931,192.932
0.045,3.548,-2.986,165.710,302.917,233.826
0.307,3.687,-2.746,149.475,321.899,271.484
0.565,3.769,-2.463,143.066,333.435,304.810
0.865,3.645,-2.184,147.278,337.646,334.229
1.168,3.429,-1.955,153.503,332.642,359.558
1.379,3.226,-1.653,155.701,317.078,379.700
1.504,3.010,-1.339,153.503,296.265,393.616
1.580,2.794,-1.113,146.606,275.208,404.236
1.626,2.570,-0.918,135.803,254.700,412.903
1.621,2.411,-0.753,122.803,236.328,416.992
1.619,2.258,-0.658,110.596,218.384,415.405
1.578,2.105,-0.560,100.647,199.829,408.630
1.561,1.807,-0.466,91.736,179.749,398.621
1.538,1.546,-0.355,78.308,158.875,387.085
1.455,1.366,-0.376,62.134,137.329,379.272
1.313,1.066,-0.238,44.617,114.563,369.629
1.159,0.780,-0.168,21.423,91.980,341.797
1.006,0.598,-0.146,-4.272,74.341,312.317
0.806,0.562,-0.083,-29.785,59.875,288.696
0.704,0.588,-0.041,-50.781,52.673,267.578
0.670,0.672,0.004,-62.805,49.866,249.084
0.647,0.782,0.047,-62.561,47.119,232.910
0.593,0.817,0.082,-49.927,43.701,217.285
0.517,0.815,0.110,-27.527,40.466,202.209
0.429,0.741,0.125,0.000,38.330,186.829
0.309,0.566,0.118,27.832,37.659,171.387
0.192,0.339,0.109,50.354,38.513,156.433
0.109,0.138,0.114,62.500,41.260,140.625
0.086,0.019,0.117,65.308,44.861,124.817
0.050,-0.047,0.120,61.890,46.509,110.962
-0.003,-0.049,0.145,56.335,44.922,98.755
-0.078,-0.001,0.150,51.147,42.480,87.341
-0.191,0.030,0.160,49.011,40.100,76.233
-0.289,0.052,0.174,50.476,40.894,65.308
-0.356,0.060,0.180,54.504,43.823,54.504
-0.405,0.045,0.186,60.974,46.753,44.556
-0.450,0.011,0.195,68.726,49.255,35.217
-0.507,-0.039,0.197,77.148,50.110,25.330
-0.572,-0.131,0.196,85.510,50.354,15.686
-0.590,-0.208,0.190,92.041,50.354,4.883
-0.620,-0.255,0.189,95.581,49.072,-6.958
-0.658,-0.306,0.180,95.825,46.509,-18.494
-0.688,-0.306,0.174,92.163,42.908,-26.917
-0.725,-0.289,0.158,85.327,38.696,-32.837
-0.793,-0.271,0.152,76.660,34.851,-38.879
-0.817,-0.208,0.154,67.139,33.020,-45.959
-0.825,-0.125,0.152,58.777,33.203,-54.199
-0.837,-0.062,0.148,53.284,33.875,-61.768
-0.848,-0.001,0.160,50.537,35.217,-67.871
-0.831,0.050,0.167,49.744,36.316,-72.571
-0.803,0.094,0.162,49.255,35.278,-75.012
-0.825,0.153,0.158,48.828,31.555,-76.111
-0.858,0.198,0.153,48.645,27.710,-77.332
-0.889,0.233,0.163,49.377,25.269,-78.491
-0.896,0.245,0.164,50.842,24.414,-79.224
-0.894,0.215,0.159,52.490,24.353,-79.773
-0.886,0.184,0.168,52.063,24.780,-79.895
-0.853,0.171,0.173,49.438,25.391,-79.163
-0.849,0.183,0.175,45.593,25.269,-77.332
-0.898,0.164,0.162,41.992,23.560,-75.317
-0.908,0.141,0.137,38.635,21.179,-74.524
-0.898,0.159,0.116,35.339,18.555,-76.050
-0.889,0.203,0.121,32.471,15.930,-79.224
-0.897,0.254,0.141,31.433,14.465,-81.665
-0.887,0.322,0.182,32.776,15.137,-82.886
-0.875,0.341,0.207,36.621,17.517,-82.581
-0.848,0.322,0.212,42.114,20.996,-80.566
-0.848,0.297,0.220,47.913,23.193,-77.942
-0.835,0.260,0.217,53.528,23.376,-76.355
-0.825,0.226,0.213,58.289,21.545,-76.172
-0.833,0.146,0.196,60.913,19.226,-76.904
-0.823,0.059,0.164,59.448,17.334,-78.003
-0.793,0.020,0.150,52.246,16.113,-79.773
-0.791,0.030,0.163,41.443,14.954,-81.421
-0.798,0.076,0.188,30.518,15.076,-82.458
-0.787,0.123,0.211,22.217,16.907,-83.008
-0.745,0.204,0.236,17.395,19.531,-83.923
-0.711,0.280,0.247,17.456,20.813,-83.923
-0.719,0.308,0.257,23.010,19.287,-83.740
-0.732,0.286,0.258,30.762,17.029,-84.839
-0.745,0.229,0.227,37.842,15.625,-87.341
-0.776,0.144,0.201,41.382,14.832,-90.393
-0.812,0.087,0.173,39.124,14.404,-93.628
-0.811,0.115,0.126,32.654,15.076,-97.229
-0.814,0.237,0.092,25.574,15.198,-100.403
-0.849,0.340,0.073,22.766,14.893,-102.234
-0.891,0.410,0.067,24.902,15.686,-103.333
-0.921,0.471,0.086,30.457,19.287,-104.065
-0.944,0.507,0.146,38.513,25.879,-103.394
-0.922,0.489,0.184,47.791,34.180,-100.891
-0.880,0.481,0.228,55.542,40.771,-97.778
-0.844,0.467,0.264,61.646,44.495,-95.459
-0.811,0.475,0.292,66.223,44.128,-94.299
-0.825,0.481,0.304,69.946,40.161,-93.079
-0.859,0.458,0.305,72.937,34.912,-91.431
-0.890,0.419,0.300,73.914,31.006,-90.393
-0.915,0.401,0.282,71.472,29.175,-89.966
-0.918,0.411,0.265,66.956,28.931,-89.050
-0.974,0.406,0.303,61.584,29.846,-87.585
-1.017,0.374,0.347,55.176,33.630,-85.022
-0.989,0.319,0.362,45.959,39.734,-81.177
-0.942,0.291,0.378,33.691,43.579,-76.477
-0.916,0.302,0.393,19.165,41.382,-72.815

-0.918,0.500,-1.419,-173.584,11.536,-26.428
-1.029,0.499,-1.423,-164.185,26.611,-21.484
-1.119,0.442,-1.436,-152.466,42.053,-18.616
-1.139,0.395,-1.486,-142.029,55.603,-17.822
-1.213,0.339,-1.549,-135.864,64.575,-18.250
-1.303,0.327,-1.632,-136.414,70.557,-17.822
-1.468,0.338,-1.727,-143.494,76.843,-15.076
-1.646,0.441,-1.796,-155.273,87.219,-9.216
-1.696,0.617,-1.957,-168.396,103.455,-2.747
-1.628,0.911,-2.235,-178.223,120.667,4.578
-1.579,1.304,-2.496,-182.007,134.583,13.489
-1.696,1.392,-2.601,-177.429,145.935,22.278
-1.693,1.502,-2.796,-167.664,159.607,32.043
-1.590,1.582,-3.023,-157.654,178.223,41.870
-1.374,1.622,-3.311,-150.146,197.388,52.673
-1.140,1.638,-3.620,-147.278,214.539,66.406
-0.921,1.604,-3.888,-151.245,229.492,80.688
-0.792,1.642,-4.000,-161.621,245.972,92.285
-0.481,1.796,-4.000,-170.532,267.395,102.112
-0.176,1.852,-4.000,-175.354,291.138,110.352
0.094,1.928,-4.000,-172.974,313.782,115.784
0.341,1.918,-4.000,-163.940,337.097,117.859
0.588,1.853,-4.000,-150.513,361.816,120.911
0.839,1.806,-3.988,-135.010,385.803,122.498
1.069,1.751,-3.690,-117.798,404.724,118.835
1.248,1.656,-3.351,-98.450,415.466,113.525
1.365,1.528,-3.018,-81.177,417.725,109.924
1.439,1.395,-2.682,-67.932,413.696,108.337
1.505,1.258,-2.372,-58.777,405.090,107.178
1.500,1.069,-2.082,-54.138,392.517,106.689
1.455,0.943,-1.797,-53.772,377.686,106.079
1.472,0.918,-1.538,-54.993,361.206,101.929
1.463,0.882,-1.278,-52.979,340.271,95.032
1.412,0.792,-1.049,-46.814,315.979,88.501
1.324,0.664,-0.841,-37.964,289.001,82.092
1.216,0.523,-0.656,-28.992,262.451,73.364
1.019,0.305,-0.491,-22.888,240.479,64.758
0.879,0.104,-0.375,-22.888,225.098,60.425
0.794,-0.022,-0.269,-28.564,212.219,54.077
0.704,-0.069,-0.162,-36.682,196.838,43.152
0.577,-0.043,-0.062,-42.358,178.589,30.396
0.456,0.015,0.014,-42.786,159.973,18.982
0.340,0.055,0.080,-37.598,142.517,9.094
0.223,0.079,0.116,-28.137,126.160,0.244
0.075,0.027,0.118,-16.968,111.694,-6.714
-0.090,-0.053,0.125,-8.057,99.854,-11.902
-0.212,-0.141,0.117,-3.662,91.431,-15.991
-0.301,-0.186,0.095,-3.845,85.266,-19.531
-0.368,-0.169,0.088,-6.897,78.796,-22.461
-0.417,-0.110,0.075,-10.681,70.801,-23.865
-0.473,-0.071,0.060,-13.306,61.340,-24.109
-0.559,-0.038,0.058,-14.832,51.636,-23.193
-0.620,-0.003,0.058,-15.747,44.312,-22.339
-0.673,0.027,0.055,-15.015,38.818,-22.278
-0.734,0.051,0.068,-12.451,34.119,-21.606
-0.785,0.061,0.072,-8.179,29.785,-21.179
-0.815,0.046,0.059,-3.601,25.879,-20.935
-0.845,0.016,0.032,0.305,21.729,-20.203
-0.899,-0.027,0.007,2.441,17.090,-17.700
-0.925,-0.062,-0.012,2.075,13.550,-15.259
-0.931,-0.065,-0.029,-0.122,10.803,-14.038
-0.938,-0.030,-0.024,-2.747,7.751,-13.672
-0.943,0.022,-0.012,-3.418,4.333,-13.794
-0.942,0.065,-0.006,-1.648,0.916,-14.709
-0.968,0.056,-0.016,1.831,-2.197,-15.564
-0.976,0.068,-0.076,4.395,-4.333,-15.503
-0.978,0.055,-0.024,6.714,-6.104,-14.709
-1.010,0.048,-0.024,7.568,-8.545,-12.939
-0.944,0.062,-0.065,8.606,-11.292,-12.756
-0.937,0.053,-0.071,9.155,-14.099,-11.963
-0.910,0.067,-0.065,8.911,-16.724,-12.451
-0.875,0.106,-0.083,9.766,-19.043,-13.916
-0.853,0.122,-0.087,12.085,-21.973,-15.808
-0.818,0.130,-0.098,15.930,-25.940,-17.334
-0.769,0.150,-0.112,20.508,-30.151,-18.982
-0.748,0.162,-0.131,25.940,-35.400,-21.423
-0.765,0.148,-0.160,32.532,-40.710,-24.841
-0.783,0.131,-0.189,39.124,-45.410,-29.358
-0.839,0.161,-0.205,45.288,-48.828,-34.912
-0.895,0.214,-0.208,52.246,-50.110,-41.748
-0.926,0.298,-0.197,61.829,-49.072,-47.974
-0.914,0.367,-0.199,75.134,-47.668,-52.551
-0.892,0.437,-0.209,92.041,-47.180,-55.969
-0.863,0.504,-0.221,112.000,-48.401,-59.875
-0.825,0.570,-0.256,134.827,-51.636,-64.758
-0.818,0.614,-0.290,161.011,-55.664,-70.557
-0.834,0.597,-0.351,188.599,-59.082,-77.454
-0.925,0.555,-0.414,214.417,-61.340,-85.022
-0.991,0.477,-0.481,236.389,-62.439,-93.018
-1.049,0.444,-0.515,252.075,-61.829,-99.792
-1.099,0.481,-0.556,264.343,-59.875,-104.187
-1.174,0.518,-0.580,275.696,-55.664,-105.286
-1.256,0.556,-0.560,286.804,-46.814,-103.882
-1.299,0.628,-0.536,297.913,-31.555,-101.685
-1.253,0.664,-0.535,311.096,-12.024,-98.999
-1.138,0.687,-0.533,325.867,7.019,-95.703
-1.024,0.658,-0.536,340.942,21.484,-93.262
-0.953,0.541,-0.549,353.699,28.687,-92.590
-0.963,0.424,-0.509,360.291,29.114,-93.506
-0.985,0.333,-0.468,359.558,27.893,-93.323
-1.004,0.260,-0.407,352.539,27.344,-91.125
-1.023,0.228,-0.355,340.637,28.503,-86.731
-1.041,0.201,-0.293,325.500,32.288,-81.360
-1.011,0.230,-0.253,308.838,39.429,-76.111
-0.978,0.250,-0.220,292.969,48.340,-70.374
-0.955,0.215,-0.186,278.809,57.373,-64.270
-0.888,0.211,-0.153,265.503,65.430,-57.678
-0.831,0.217,-0.134,252.869,71.045,-52.612
-0.873,0.175,-0.040,241.699,71.411,-48.218
-0.845,0.175,-0.017,229.492,71.899,-42.969
-0.877,0.146,0.074,216.309,70.923,-40.283
-0.874,0.115,0.121,202.148,70.435,-38.879
-0.874,0.081,0.202,188.232,70.007,-37.415
-0.816,0.130,0.227,174.683,70.557,-35.034
-0.787,0.166,0.252,164.185,69.763,-33.447
-0.767,0.183,0.263,157.471,68.054,-32.104
-0.779,0.088,0.233,152.893,65.430,-31.738
-0.782,0.024,0.208,147.644,61.401,-30.945
-0.784,-0.008,0.199,137.878,57.251,-30.579

-0.677,0.662,-1.371,-172.424,16.968,-19.470
-0.773,0.839,-1.447,-190.186,18.677,-21.790
-0.892,1.019,-1.535,-202.759,24.109,-22.217
-1.004,1.218,-1.613,-207.153,32.593,-18.555
-1.090,1.398,-1.660,-203.186,43.091,-12.695
-1.205,1.465,-1.733,-190.552,52.673,-7.080
-1.347,1.426,-1.790,-173.401,62.256,-2.808
-1.476,1.366,-1.859,-159.424,73.792,-0.549
-1.597,1.333,-1.943,-152.527,89.966,1.343
-1.684,1.356,-2.038,-153.198,110.168,5.615
-1.730,1.447,-2.159,-158.936,132.935,12.451
-1.758,1.549,-2.284,-167.236,155.640,20.813
-1.753,1.669,-2.419,-175.842,177.307,29.541
-1.739,1.816,-2.537,-183.472,198.669,39.673
-1.704,1.949,-2.620,-188.721,218.811,51.636
-1.640,2.017,-2.688,-190.979,238.586,65.369
-1.559,2.096,-2.731,-191.101,256.897,77.332
-1.457,2.173,-2.770,-188.904,275.391,85.144
-1.369,2.256,-2.816,-183.350,295.593,91.797
-1.207,2.302,-2.872,-173.889,319.275,99.060
-0.976,2.270,-2.936,-161.316,343.323,105.896
-0.724,2.247,-2.954,-147.461,363.342,110.535
-0.491,2.244,-2.904,-132.080,376.892,112.671
-0.266,2.218,-2.811,-112.427,384.277,115.723
-0.087,2.150,-2.654,-89.172,385.071,120.483
0.075,1.993,-2.478,-65.674,380.920,125.244
0.227,1.823,-2.281,-46.387,375.122,129.761
0.382,1.643,-2.086,-32.776,368.530,134.766
0.494,1.451,-1.903,-25.330,359.924,140.076
0.611,1.287,-1.713,-22.827,348.816,145.813
0.744,1.152,-1.499,-23.193,334.290,148.376
0.818,1.020,-1.280,-23.254,314.636,146.484
0.830,0.892,-1.056,-21.362,290.466,141.846
0.824,0.778,-0.847,-16.907,263.245,135.254
0.796,0.642,-0.665,-9.888,234.070,127.075
0.694,0.487,-0.503,-2.991,203.308,118.286
0.556,0.308,-0.372,2.808,175.293,109.924
0.403,0.114,-0.269,5.676,153.503,103.760
0.316,-0.063,-0.219,3.296,138.733,101.868
0.300,-0.196,-0.176,-3.784,126.709,101.013
0.320,-0.278,-0.148,-15.625,112.610,96.741
0.299,-0.320,-0.120,-29.907,93.384,89.539
0.191,-0.330,-0.084,-42.664,71.167,80.383
0.057,-0.339,-0.069,-52.551,49.927,69.946
-0.057,-0.325,-0.078,-58.289,32.532,58.044
-0.148,-0.275,-0.109,-59.570,18.860,45.105
-0.260,-0.210,-0.137,-55.298,8.606,31.128
-0.403,-0.159,-0.132,-46.509,3.357,16.479
-0.511,-0.074,-0.135,-33.264,6.592,4.089
-0.529,-0.029,-0.146,-15.869,17.395,-4.089
-0.477,-0.003,-0.135,2.686,28.748,-10.742
-0.424,-0.029,-0.127,22.217,35.339,-17.212
-0.411,-0.100,-0.109,39.490,34.790,-23.071
-0.448,-0.148,-0.064,51.575,29.907,-30.029
-0.479,-0.196,-0.038,58.167,23.804,-37.354
-0.537,-0.247,-0.016,60.181,17.639,-41.626
-0.614,-0.295,0.001,56.641,13.916,-43.030
-0.676,-0.318,0.010,48.340,13.977,-43.457
-0.685,-0.289,0.014,36.926,17.212,-44.617
-0.668,-0.202,0.041,25.024,20.935,-46.509
-0.649,-0.076,0.081,16.479,22.278,-48.279
-0.641,0.041,0.126,13.306,21.362,-49.072
-0.633,0.144,0.174,16.052,18.799,-48.035
-0.641,0.183,0.197,24.231,13.550,-44.617
-0.663,0.151,0.197,35.339,5.859,-41.748
-0.688,0.052,0.179,45.410,-2.258,-41.809
-0.710,-0.058,0.150,50.293,-9.827,-43.030
-0.765,-0.153,0.125,47.913,-16.663,-43.518
-0.800,-0.221,0.105,38.818,-20.691,-44.373
-0.785,-0.228,0.080,24.902,-22.156,-45.410
-0.757,-0.156,0.075,9.094,-23.682,-45.898
-0.725,-0.042,0.073,-3.418,-27.405,-45.776
-0.716,0.056,0.066,-10.864,-33.142,-43.274
-0.723,0.121,0.051,-12.939,-40.161,-40.161
-0.733,0.163,0.021,-11.108,-46.448,-38.513
-0.757,0.178,-0.010,-7.568,-51.758,-38.513
-0.787,0.202,-0.037,-3.174,-55.359,-39.185
-0.825,0.233,-0.050,2.197,-56.335,-39.185
-0.842,0.254,-0.065,8.850,-55.359,-39.063
-0.845,0.252,-0.075,16.052,-52.917,-38.330
-0.820,0.253,-0.085,22.827,-49.927,-37.659
-0.778,0.241,-0.096,29.480,-47.607,-37.354
-0.748,0.206,-0.106,35.217,-47.791,-37.170
-0.725,0.142,-0.135,38.879,-50.110,-37.598
-0.725,0.108,-0.164,39.124,-53.955,-38.574
-0.761,0.106,-0.182,36.621,-58.533,-39.185
-0.782,0.150,-0.189,33.386,-62.683,-39.124
-0.794,0.253,-0.209,32.104,-65.674,-38.940
-0.807,0.369,-0.231,35.645,-67.688,-38.940
-0.844,0.486,-0.244,45.593,-68.420,-39.246
-0.874,0.582,-0.257,62.500,-66.711,-40.100
-0.877,0.643,-0.281,85.022,-61.707,-41.931
-0.857,0.670,-0.316,111.267,-55.115,-44.434
-0.853,0.631,-0.359,138.367,-49.500,-46.936
-0.886,0.528,-0.397,163.269,-46.143,-50.049
-0.933,0.437,-0.411,182.495,-44.434,-54.199
-0.960,0.375,-0.425,195.251,-43.396,-59.265
-0.974,0.364,-0.433,202.271,-43.518,-64.087
-0.989,0.402,-0.424,206.360,-44.128,-67.871
-1.030,0.455,-0.396,209.961,-44.495,-69.702
-1.080,0.481,-0.367,214.600,-41.504,-69.458
-1.105,0.510,-0.346,220.154,-33.997,-68.054
-1.082,0.535,-0.371,226.624,-23.376,-65.308
-1.083,0.524,-0.380,234.314,-12.695,-61.890
-1.068,0.493,-0.396,241.943,-3.845,-58.716
-1.049,0.461,-0.400,247.498,2.808,-57.495
-1.038,0.434,-0.385,250.488,7.629,-58.777
-1.029,0.439,-0.350,251.221,11.292,-62.073
-0.995,0.479,-0.298,250.549,14.648,-65.735
-0.953,0.506,-0.239,249.390,17.517,-67.017
-0.915,0.528,-0.185,249.268,19.470,-64.026
-0.899,0.512,-0.148,249.390,20.752,-58.411
-0.901,0.504,-0.132,248.413,20.325,-52.368
-0.935,0.505,-0.107,247.681,19.775,-47.119
-0.970,0.455,-0.106,246.704,20.813,-43.762
-1.009,0.404,-0.106,244.141,24.170,-41.443
-1.021,0.369,-0.097,239.502,29.724,-39.490
-0.935,0.409,-0.112,232.971,36.194,-37.720
-0.954,0.358,-0.048,226.624,39.551,-35.217

-0.986,0.506,-1.314,-160.889,-38.330,-47.058
-1.066,0.468,-1.430,-154.175,-31.372,-45.105
-1.159,0.469,-1.511,-147.949,-22.522,-42.297
-1.275,0.483,-1.561,-144.592,-9.949,-39.490
-1.360,0.495,-1.661,-143.982,5.615,-35.950
-1.428,0.518,-1.768,-144.592,22.156,-30.212
-1.510,0.523,-1.843,-146.057,37.842,-25.269
-1.578,0.545,-1.943,-148.987,52.124,-23.315
-1.656,0.584,-2.059,-152.893,66.223,-23.865
-1.739,0.683,-2.200,-157.959,80.872,-24.109
-1.823,0.787,-2.380,-162.537,97.412,-22.705
-1.845,0.890,-2.623,-166.443,116.028,-19.531
-1.830,1.020,-2.899,-170.105,136.292,-16.968
-1.788,1.167,-3.199,-173.950,157.288,-14.587
-1.740,1.359,-3.477,-177.673,182.434,-10.986
-1.633,1.534,-3.721,-178.772,212.891,-6.592
-1.543,1.682,-3.877,-176.575,246.155,-2.136
-1.280,1.869,-4.000,-170.349,280.762,3.601
-1.028,1.949,-4.000,-159.851,315.552,11.475
-0.748,1.958,-4.000,-146.973,347.351,19.470
-0.445,1.950,-3.994,-132.690,376.343,27.832
-0.141,1.919,-3.826,-118.042,403.015,37.292
0.165,1.844,-3.633,-102.417,424.866,49.438
0.405,1.715,-3.377,-88.501,439.148,62.012
0.611,1.574,-3.096,-78.247,446.106,71.167
0.779,1.480,-2.797,-71.960,446.594,78.552
0.870,1.428,-2.471,-68.176,440.735,85.449
0.925,1.383,-2.127,-63.232,430.054,92.163
1.029,1.336,-1.801,-55.237,416.382,97.778
1.102,1.196,-1.495,-44.556,398.437,102.844
1.119,0.967,-1.220,-35.217,375.977,109.619
1.109,0.732,-0.976,-31.433,351.624,116.455
1.096,0.562,-0.736,-33.691,324.707,118.530
1.080,0.444,-0.532,-39.734,294.800,116.333
1.024,0.360,-0.358,-45.715,262.756,113.220
0.951,0.298,-0.208,-49.194,230.652,108.154
0.854,0.233,-0.088,-49.194,199.036,99.121
0.715,0.158,0.004,-46.265,168.823,87.646
0.551,0.074,0.059,-41.687,142.456,75.989
0.367,0.005,0.101,-37.292,122.314,65.796
0.204,-0.040,0.126,-33.691,109.192,58.350
0.117,-0.081,0.139,-30.579,101.318,51.758
0.063,-0.100,0.152,-28.381,93.628,44.678
0.015,-0.073,0.175,-25.330,82.825,37.048
-0.071,-0.077,0.184,-20.325,68.542,28.809
-0.154,-0.089,0.172,-12.878,52.612,20.996
-0.262,-0.121,0.156,-6.226,37.354,13.855
-0.363,-0.156,0.118,-1.282,24.597,7.812
-0.481,-0.213,0.078,1.465,15.137,3.235
-0.596,-0.264,0.030,1.343,9.705,-0.061
-0.693,-0.281,-0.007,-1.343,8.545,-2.991
-0.755,-0.251,-0.027,-4.822,9.827,-5.920
-0.773,-0.216,-0.056,-7.751,11.108,-9.216
-0.779,-0.153,-0.070,-9.033,10.376,-11.169
-0.797,-0.104,-0.079,-7.629,6.897,-12.024
-0.833,-0.075,-0.084,-3.845,2.258,-12.207
-0.878,-0.084,-0.097,1.282,-1.709,-12.939
-0.930,-0.099,-0.106,6.714,-4.089,-14.404
-0.973,-0.123,-0.110,10.803,-4.456,-16.174
-0.996,-0.152,-0.112,13.245,-3.601,-17.395
-0.994,-0.165,-0.104,13.794,-2.258,-17.700
-0.978,-0.178,-0.106,12.756,-1.404,-18.250
-0.962,-0.172,-0.100,10.620,-2.136,-19.226
-0.958,-0.145,-0.087,8.057,-3.723,-20.386
-0.943,-0.114,-0.086,6.226,-5.432,-21.545
-0.934,-0.083,-0.080,5.920,-7.324,-22.461
-0.935,-0.050,-0.072,6.592,-9.460,-23.621
-0.932,-0.018,-0.068,8.423,-11.475,-25.391
-0.936,-0.003,-0.064,11.414,-13.489,-26.855
-0.941,-0.005,-0.062,14.832,-15.625,-27.893
-0.937,-0.025,-0.067,18.372,-17.456,-28.931
-0.934,-0.030,-0.071,20.447,-19.104,-30.823
-0.923,-0.032,-0.072,21.851,-20.508,-33.325
-0.915,-0.008,-0.059,23.010,-22.095,-36.194
-0.896,0.021,-0.051,25.085,-23.865,-39.185
-0.862,0.056,-0.054,28.320,-26.062,-41.992
-0.849,0.081,-0.051,32.349,-28.809,-43.945
-0.851,0.094,-0.054,37.048,-31.738,-45.471
-0.828,0.094,-0.080,41.199,-33.813,-47.424
-0.790,0.105,-0.106,45.166,-35.461,-49.438
-0.770,0.117,-0.120,48.645,-38.574,-51.392
-0.779,0.147,-0.127,53.040,-43.091,-52.917
-0.813,0.173,-0.134,59.326,-47.180,-54.260
-0.831,0.201,-0.151,67.261,-50.110,-57.129
-0.838,0.245,-0.157,76.782,-52.002,-61.523
-0.842,0.289,-0.161,88.501,-53.345,-66.833
-0.848,0.331,-0.161,102.295,-54.626,-72.876
-0.840,0.384,-0.160,117.554,-55.237,-78.857
-0.804,0.456,-0.202,134.705,-55.481,-85.510
-0.799,0.516,-0.237,154.846,-57.129,-91.614
-0.847,0.526,-0.266,177.368,-59.509,-96.191
-0.929,0.467,-0.301,199.341,-60.425,-99.915
-0.982,0.388,-0.340,217.468,-59.509,-104.187
-1.006,0.347,-0.378,230.408,-57.434,-108.521
-1.026,0.346,-0.388,239.319,-55.603,-113.281
-1.042,0.345,-0.379,245.300,-53.955,-117.798
-1.053,0.347,-0.366,249.878,-51.514,-120.544
-1.043,0.354,-0.364,253.235,-47.974,-121.521
-1.022,0.379,-0.346,256.348,-43.518,-122.131
-0.995,0.412,-0.334,258.850,-38.757,-123.169
-0.974,0.416,-0.327,261.169,-34.363,-124.146
-0.964,0.406,-0.329,262.756,-31.006,-124.451
-0.958,0.396,-0.328,262.695,-28.198,-123.230
-0.959,0.374,-0.318,260.437,-25.146,-121.887
-0.977,0.321,-0.295,255.615,-21.667,-120.300
-0.972,0.294,-0.277,248.413,-16.663,-117.554
-0.949,0.276,-0.265,238.953,-10.498,-113.098
-0.929,0.285,-0.233,227.600,-4.395,-107.361
-0.921,0.338,-0.208,216.858,2.625,-100.586
-0.933,0.413,-0.146,209.045,11.047,-94.177
-0.939,0.475,-0.076,204.773,20.813,-89.783
-0.907,0.497,-0.023,203.247,30.762,-87.463
-0.879,0.530,0.000,203.186,39.063,-85.571
-0.816,0.554,0.042,204.224,43.945,-82.825
-0.795,0.546,0.072,204.956,43.762,-79.224
-0.763,0.505,0.084,205.078,41.626,-75.195
-0.755,0.434,0.098,203.369,37.170,-71.045
-0.727,0.404,0.086,199.097,31.250,-65.857
-0.726,0.356,0.093,192.871,24.475,-62.012

-0.876,0.651,-1.609,-194.214,-16.479,-74.768
-1.052,0.668,-1.680,-185.181,-12.512,-74.463
-1.176,0.591,-1.791,-174.561,-2.014,-74.341
-1.229,0.476,-1.961,-168.030,11.658,-72.998
-1.267,0.379,-2.100,-169.556,24.475,-71.106
-1.283,0.377,-2.291,-180.054,35.278,-70.129
-1.333,0.469,-2.512,-196.350,44.922,-69.946
-1.441,0.694,-2.700,-213.928,56.458,-69.641
-1.572,0.989,-2.833,-226.624,76.050,-69.946
-1.619,1.246,-2.972,-229.919,105.103,-70.129
-1.556,1.494,-3.093,-222.412,139.099,-69.092
-1.460,1.671,-3.222,-206.482,171.021,-67.749
-1.376,1.786,-3.355,-186.584,198.669,-65.491
-1.330,1.829,-3.477,-168.457,223.389,-61.584
-1.252,1.836,-3.601,-156.189,249.573,-54.932
-1.136,1.839,-3.687,-152.710,279.968,-44.800
-0.968,1.903,-3.707,-156.372,314.575,-30.212
-0.683,2.017,-3.677,-161.072,349.670,-14.282
-0.393,2.133,-3.583,-161.560,378.784,-0.610
-0.150,2.253,-3.415,-153.809,399.597,11.414
0.082,2.304,-3.239,-136.597,413.147,22.461
0.275,2.277,-3.046,-112.488,420.532,32.837
0.440,2.191,-2.839,-86.243,422.485,43.213
0.573,2.072,-2.607,-61.035,420.593,54.626
0.701,1.953,-2.365,-38.940,415.405,65.247
0.795,1.797,-2.104,-20.020,406.006,74.341
0.840,1.630,-1.848,-5.371,394.592,83.923
0.933,1.462,-1.608,4.456,384.460,94.727
1.040,1.302,-1.377,10.315,372.681,104.370
1.106,1.148,-1.137,11.475,354.858,109.802
1.141,1.008,-0.912,9.521,330.139,112.061
1.128,0.875,-0.702,6.836,300.232,114.502
1.077,0.727,-0.525,4.333,268.250,117.493
0.978,0.569,-0.366,1.709,237.488,119.690
0.876,0.434,-0.230,-0.977,209.473,119.568
0.784,0.290,-0.134,-3.174,185.913,116.333
0.713,0.181,-0.071,-4.944,165.527,111.450
0.639,0.091,-0.032,-5.676,147.644,105.469
0.557,0.035,-0.001,-6.104,131.592,97.900
0.501,0.021,0.016,-5.737,117.310,89.661
0.414,0.000,0.033,-3.723,102.722,81.238
0.297,-0.044,0.037,-0.427,87.830,73.242
0.185,-0.094,0.024,3.174,73.914,64.880
0.067,-0.153,0.001,5.920,61.340,55.542
-0.054,-0.206,-0.035,6.897,50.415,45.837
-0.171,-0.235,-0.072,5.493,41.260,36.926
-0.279,-0.228,-0.104,2.502,34.241,29.480
-0.350,-0.180,-0.122,-0.671,29.236,23.193
-0.397,-0.119,-0.136,-2.380,25.269,18.372
-0.475,-0.081,-0.137,-1.953,21.301,16.052
-0.561,-0.069,-0.135,0.244,18.127,14.893
-0.639,-0.063,-0.127,3.052,16.479,12.817
-0.695,-0.058,-0.116,5.554,15.625,9.216
-0.729,-0.049,-0.108,7.996,14.404,5.798
-0.756,-0.046,-0.104,10.132,11.719,3.052
-0.791,-0.054,-0.103,12.146,7.568,1.099
-0.820,-0.077,-0.116,13.184,3.540,0.061
-0.844,-0.101,-0.137,13.123,-0.244,-0.366
-0.880,-0.124,-0.148,11.780,-3.784,-1.526
-0.927,-0.129,-0.160,8.423,-6.409,-3.540
-0.975,-0.101,-0.159,4.150,-7.141,-5.432
-0.989,-0.046,-0.154,0.488,-6.042,-7.751
-0.983,0.011,-0.154,-1.099,-4.211,-10.376
-0.974,0.057,-0.155,0.061,-3.662,-12.939
-0.978,0.094,-0.148,3.479,-4.517,-15.015
-0.959,0.148,-0.139,8.850,-6.226,-16.968
-0.961,0.141,-0.136,15.503,-8.789,-19.470
-0.950,0.161,-0.144,23.132,-12.268,-21.301
-0.949,0.151,-0.160,30.151,-16.235,-23.254
-0.967,0.135,-0.155,35.583,-20.264,-25.452
-0.987,0.124,-0.153,39.185,-22.339,-27.222
-0.969,0.103,-0.172,41.077,-22.400,-28.259
-0.937,0.083,-0.198,40.955,-22.095,-29.175
-0.930,0.059,-0.214,38.757,-23.193,-30.579
-0.934,0.052,-0.206,34.729,-24.658,-32.471
-0.899,0.089,-0.191,30.029,-25.513,-34.302
-0.847,0.129,-0.202,26.794,-27.527,-33.813
-0.804,0.153,-0.206,26.611,-32.227,-31.372
-0.781,0.177,-0.210,29.175,-38.635,-29.297
-0.766,0.201,-0.214,34.546,-45.105,-29.846
-0.753,0.226,-0.223,42.725,-50.293,-33.081
-0.788,0.249,-0.222,53.345,-53.711,-38.086
-0.828,0.262,-0.229,65.918,-53.650,-44.495
-0.821,0.259,-0.263,79.224,-49.683,-51.758
-0.835,0.248,-0.287,91.980,-46.143,-58.411
-0.840,0.220,-0.300,104.126,-44.434,-63.782
-0.841,0.177,-0.318,114.685,-44.312,-68.359
-0.836,0.142,-0.326,122.681,-45.471,-73.120
-0.828,0.147,-0.326,128.662,-47.119,-78.186
-0.814,0.169,-0.335,134.094,-49.011,-82.947
-0.797,0.207,-0.340,139.893,-50.903,-87.524
-0.793,0.254,-0.336,146.729,-52.185,-92.407
-0.816,0.306,-0.331,155.090,-52.002,-97.351
-0.874,0.364,-0.323,164.612,-49.805,-102.722
-0.912,0.410,-0.321,175.476,-45.471,-108.154
-0.922,0.478,-0.337,188.049,-40.222,-112.671
-0.932,0.528,-0.344,202.637,-35.461,-116.089
-0.940,0.567,-0.337,218.201,-31.799,-118.713
-0.947,0.577,-0.340,234.070,-28.625,-120.178
-0.948,0.565,-0.338,248.169,-25.085,-121.399
-0.954,0.545,-0.328,260.193,-20.752,-122.620
-0.984,0.516,-0.303,270.447,-15.015,-123.474
-1.001,0.475,-0.279,278.015,-7.324,-123.474
-0.995,0.419,-0.267,282.776,1.892,-123.169
-0.973,0.372,-0.269,283.752,11.719,-122.070
-0.949,0.305,-0.278,280.457,20.264,-121.277
-0.907,0.262,-0.272,272.156,25.757,-120.850
-0.900,0.286,-0.219,259.460,28.076,-120.483
-0.902,0.341,-0.151,245.728,29.297,-119.690
-0.887,0.416,-0.101,232.666,31.128,-118.103
-0.869,0.481,-0.051,221.924,32.837,-115.295
-0.838,0.562,-0.000,214.905,34.058,-110.718
-0.803,0.617,0.026,211.731,35.217,-104.858
-0.795,0.648,0.062,211.365,35.706,-99.304
-0.795,0.636,0.090,211.487,36.133,-94.299
-0.795,0.567,0.105,210.205,35.828,-89.661
-0.807,0.484,0.129,205.444,35.034,-85.571
-0.823,0.396,0.150,195.679,34.607,-82.642
-0.839,0.355,0.173,181.335,35.583,-81.238

-0.764,0.997,-0.929,-222.229,51.086,-33.875
-0.832,1.086,-0.933,-227.356,56.824,-28.748
-0.883,1.185,-0.954,-232.483,62.561,-22.522
-0.929,1.262,-1.009,-238.342,67.932,-14.343
-0.997,1.295,-1.084,-246.094,71.777,-5.615
-1.025,1.059,-1.308,-261.780,74.341,3.906
-1.119,1.471,-1.403,-288.879,73.120,15.076
-1.230,1.773,-1.533,-310.547,75.073,30.823
-1.359,2.097,-1.709,-321.045,78.796,48.340
-1.475,2.387,-1.821,-318.115,86.365,62.073
-1.578,2.531,-1.937,-303.711,100.037,73.914
-1.593,2.632,-2.032,-281.921,119.934,86.670
-1.557,2.625,-2.134,-257.080,142.822,99.060
-1.496,2.564,-2.269,-234.192,167.908,111.267
-1.417,2.500,-2.423,-216.309,193.665,123.718
-1.314,2.449,-2.570,-204.895,218.689,135.803
-1.199,2.432,-2.708,-197.754,243.530,146.179
-1.080,2.438,-2.807,-192.322,267.212,155.029
-0.906,2.454,-2.895,-185.059,290.161,162.842
-0.682,2.431,-2.963,-174.072,311.218,170.349
-0.469,2.352,-2.984,-161.255,328.674,176.758
-0.248,2.229,-2.961,-149.658,341.614,181.824
-0.039,2.059,-2.889,-140.991,350.464,187.988
0.178,1.895,-2.773,-136.902,356.140,193.726
0.342,1.786,-2.621,-134.949,358.521,195.190
0.461,1.766,-2.441,-131.897,359.741,192.139
0.579,1.749,-2.254,-123.047,360.352,186.523
0.740,1.723,-2.035,-106.445,357.971,180.054
0.861,1.648,-1.785,-83.618,350.708,174.011
0.960,1.516,-1.559,-56.824,337.952,168.274
1.020,1.314,-1.352,-29.968,319.580,162.170
1.002,1.076,-1.150,-8.118,296.082,155.640
0.943,0.860,-0.983,5.676,272.644,150.696
0.857,0.641,-0.829,11.841,252.075,148.437
0.804,0.436,-0.700,8.850,236.084,148.926
0.769,0.246,-0.578,-1.099,221.985,150.146
0.730,0.113,-0.461,-16.602,207.214,147.888
0.700,0.067,-0.330,-34.241,190.186,140.503
0.635,0.058,-0.217,-48.584,170.593,129.456
0.539,0.066,-0.121,-56.580,149.414,116.760
0.405,0.072,-0.049,-57.739,129.150,102.539
0.270,0.061,-0.006,-53.040,111.816,87.341
0.137,0.047,0.020,-44.617,97.656,72.144
0.029,0.031,0.036,-34.363,87.036,58.228
-0.049,0.017,0.042,-22.583,79.041,47.302
-0.126,-0.011,0.057,-10.498,71.960,39.490
-0.187,-0.098,0.053,0.183,64.941,34.241
-0.240,-0.206,0.039,7.874,57.434,30.396
-0.304,-0.286,0.023,10.071,49.255,25.146
-0.380,-0.332,0.000,7.202,40.649,17.944
-0.465,-0.343,-0.016,1.648,33.020,9.583
-0.542,-0.295,-0.022,-4.028,26.672,1.953
-0.615,-0.224,-0.015,-7.629,20.996,-4.028
-0.710,-0.173,0.002,-8.423,16.907,-9.338
-0.754,-0.126,-0.029,-5.981,14.404,-13.123
-0.811,-0.106,-0.043,-2.258,13.855,-14.038
-0.843,-0.104,-0.055,1.648,13.855,-14.587
-0.864,-0.075,-0.062,6.592,13.489,-15.625
-0.880,-0.086,-0.047,11.658,12.085,-17.944
-0.899,-0.054,-0.041,16.968,9.521,-20.081
-0.937,-0.029,-0.034,22.583,6.836,-22.095
-0.960,-0.053,-0.037,27.954,4.517,-22.949
-0.982,-0.086,-0.033,31.494,2.563,-24.353
-0.981,-0.106,-0.040,32.410,1.160,-26.550
-0.992,-0.117,-0.047,31.250,-0.488,-29.053
-1.004,-0.124,-0.033,28.992,-2.258,-30.029
-1.005,-0.093,-0.025,25.757,-4.211,-29.968
-0.989,-0.046,-0.031,23.193,-5.859,-28.748
-0.965,-0.007,-0.042,22.583,-8.301,-27.100
-0.955,0.024,-0.048,24.292,-11.780,-26.306
-0.933,0.049,-0.058,27.222,-14.893,-27.222
-0.897,0.075,-0.070,31.677,-17.883,-28.748
-0.870,0.090,-0.082,37.537,-21.179,-29.846
-0.849,0.076,-0.104,44.128,-24.719,-30.945
-0.843,0.055,-0.125,50.354,-28.320,-33.020
-0.830,0.039,-0.151,55.481,-31.433,-36.560
-0.825,0.028,-0.187,59.631,-34.424,-41.504
-0.855,0.028,-0.199,62.805,-36.926,-47.058
-0.889,0.010,-0.199,65.125,-37.781,-52.979
-0.888,0.014,-0.203,66.040,-36.499,-57.495
-0.864,0.031,-0.202,65.857,-34.729,-60.913
-0.831,0.080,-0.201,65.674,-33.691,-63.782
-0.816,0.126,-0.195,67.017,-34.668,-66.467
-0.811,0.162,-0.196,70.007,-36.926,-69.031
-0.813,0.195,-0.216,74.524,-40.405,-70.984
-0.812,0.215,-0.242,80.322,-45.044,-73.059
-0.830,0.248,-0.257,86.975,-49.866,-75.684
-0.849,0.279,-0.273,94.482,-53.894,-79.529
-0.860,0.324,-0.278,103.333,-55.847,-83.374
-0.882,0.363,-0.272,113.159,-56.641,-87.036
-0.900,0.385,-0.285,123.352,-56.213,-90.271
-0.903,0.389,-0.299,133.362,-54.871,-93.018
-0.898,0.405,-0.313,142.456,-53.772,-94.788
-0.892,0.404,-0.335,150.696,-53.589,-95.642
-0.878,0.394,-0.358,158.325,-53.894,-96.497
-0.876,0.395,-0.379,164.612,-54.688,-98.083
-0.886,0.418,-0.388,169.922,-55.298,-101.135
-0.926,0.462,-0.372,174.866,-54.382,-105.347
-0.956,0.520,-0.348,180.725,-50.171,-109.802
-0.960,0.572,-0.339,188.538,-43.152,-113.281
-0.966,0.621,-0.338,198.242,-35.400,-115.295
-0.961,0.625,-0.342,209.106,-28.870,-115.662
-0.953,0.613,-0.347,219.482,-24.109,-115.601
-0.933,0.593,-0.349,227.905,-20.691,-116.272
-0.907,0.566,-0.349,233.826,-18.372,-118.164
-0.890,0.559,-0.349,238.098,-17.151,-119.263
-0.903,0.571,-0.333,241.211,-15.503,-119.141
-0.942,0.596,-0.290,243.958,-11.719,-119.385
-1.014,0.613,-0.234,247.070,-4.517,-119.446
-1.048,0.626,-0.192,250.305,5.981,-117.981
-1.058,0.636,-0.161,253.967,18.860,-114.563
-1.026,0.638,-0.144,258.057,30.701,-109.802
-0.996,0.615,-0.112,262.451,39.063,-104.187
-0.952,0.645,-0.103,266.479,43.945,-96.924
-0.926,0.662,-0.109,271.606,45.715,-89.722
-0.934,0.617,-0.097,277.588,45.044,-84.534
-0.921,0.615,-0.111,283.691,44.861,-79.529
-0.926,0.572,-0.111,289.246,45.471,-74.707
-0.948,0.537,-0.090,292.847,47.607,-69.458

-0.300,0.819,1.337,-12.268,30.029,9.155
-0.303,0.763,1.418,-9.949,19.409,14.587
-0.370,0.661,1.439,-7.812,6.897,20.935
-0.432,0.579,1.454,-7.629,-1.160,25.330
-0.456,0.509,1.448,-8.911,-4.272,28.015
-0.467,0.503,1.414,-11.047,-5.310,28.564
-0.414,0.461,1.334,-11.353,-4.272,26.428
-0.364,0.447,1.270,-10.010,-4.395,22.522
-0.306,0.417,1.185,-7.568,-6.042,17.456
-0.248,0.401,1.095,-5.554,-9.033,11.719
-0.203,0.388,1.003,-4.272,-13.794,5.310
-0.167,0.371,0.903,-4.272,-19.165,-0.977
-0.138,0.370,0.807,-6.165,-24.780,-6.287
-0.122,0.378,0.707,-10.254,-29.602,-12.146
-0.117,0.376,0.623,-16.052,-32.837,-18.311
-0.109,0.386,0.524,-23.315,-34.119,-24.231
-0.109,0.360,0.437,-31.616,-33.936,-30.212
-0.112,0.334,0.355,-41.626,-32.349,-36.316
-0.117,0.337,0.276,-53.406,-29.602,-42.603
-0.096,0.348,0.217,-65.247,-26.550,-48.218
-0.073,0.369,0.164,-75.623,-24.475,-53.650
-0.049,0.364,0.107,-83.801,-23.621,-58.594
-0.048,0.355,0.062,-91.309,-24.475,-63.416
-0.056,0.372,0.021,-98.511,-26.184,-68.481
-0.046,0.390,-0.020,-105.347,-27.222,-73.792
-0.034,0.413,-0.068,-110.840,-28.870,-78.491
-0.034,0.432,-0.108,-115.601,-31.189,-82.520
-0.039,0.414,-0.132,-119.751,-33.691,-85.693
-0.069,0.379,-0.178,-125.305,-35.767,-87.097
-0.101,0.324,-0.206,-133.606,-36.621,-87.036
-0.126,0.292,-0.240,-146.118,-35.950,-86.792
-0.120,0.295,-0.279,-161.804,-34.363,-86.243
-0.074,0.346,-0.322,-178.101,-33.875,-84.717
-0.027,0.400,-0.350,-192.383,-37.048,-82.092
0.004,0.423,-0.394,-203.979,-44.617,-78.552
-0.005,0.436,-0.449,-213.684,-55.115,-73.792
-0.073,0.433,-0.487,-223.206,-66.162,-69.580
-0.137,0.457,-0.532,-232.056,-74.097,-65.369
-0.186,0.474,-0.578,-238.831,-77.881,-60.547
-0.223,0.537,-0.605,-242.126,-78.369,-54.199
-0.245,0.629,-0.595,-240.356,-77.087,-46.936
-0.223,0.716,-0.601,-230.896,-75.012,-39.429
-0.221,0.803,-0.589,-213.745,-74.707,-30.945
-0.277,0.807,-0.551,-189.819,-76.111,-24.414
-0.297,0.759,-0.533,-162.170,-76.477,-20.691
-0.322,0.692,-0.520,-133.911,-75.562,-19.592
-0.323,0.589,-0.528,-108.154,-73.792,-19.531
-0.351,0.482,-0.546,-86.182,-71.777,-17.822
-0.375,0.364,-0.580,-70.313,-68.787,-14.465
-0.391,0.204,-0.623,-61.340,-65.369,-13.428
-0.400,0.069,-0.670,-60.547,-62.256,-14.648
-0.408,-0.049,-0.727,-67.871,-60.486,-16.724
-0.456,-0.151,-0.785,-82.275,-59.875,-17.334
-0.501,-0.191,-0.844,-102.112,-59.143,-17.517
-0.552,-0.173,-0.914,-124.451,-57.434,-18.860
-0.613,-0.121,-0.982,-144.409,-54.993,-20.935
-0.690,-0.119,-1.035,-160.767,-50.842,-23.071
-0.710,-0.034,-1.111,-173.706,-44.739,-23.254
-0.790,-0.014,-1.138,-183.838,-38.574,-23.010
-0.864,0.005,-1.180,-190.979,-32.776,-23.376
-0.939,0.025,-1.238,-195.984,-26.489,-23.926
-1.000,0.100,-1.285,-200.195,-20.386,-26.306
-1.062,0.185,-1.362,-203.613,-13.672,-31.494
-1.137,0.215,-1.502,-205.750,-7.568,-37.048
-1.264,0.290,-1.614,-210.083,-2.441,-39.307
-1.405,0.392,-1.732,-217.407,6.348,-39.307
-1.563,0.499,-1.880,-226.440,18.250,-37.781
-1.717,0.651,-2.008,-235.840,33.508,-35.522
-1.844,0.856,-2.116,-242.615,53.345,-34.363
-1.900,1.136,-2.227,-244.385,76.477,-33.936
-1.958,1.445,-2.335,-238.281,98.877,-33.264
-1.993,1.685,-2.457,-225.464,120.117,-31.738
-1.988,1.887,-2.604,-209.106,140.930,-27.527
-1.885,2.055,-2.794,-191.956,160.828,-19.043
-1.789,2.099,-3.016,-177.856,178.772,-6.226
-1.752,2.124,-3.212,-169.312,196.167,9.644
-1.696,1.980,-3.391,-168.213,216.858,24.963
-1.626,2.000,-3.515,-175.232,242.676,38.574
-1.417,2.073,-3.608,-184.448,273.560,50.232
-1.148,2.196,-3.628,-187.683,303.467,60.364
-0.870,2.296,-3.587,-179.932,327.209,69.214
-0.631,2.308,-3.462,-161.438,343.933,77.942
-0.362,2.253,-3.308,-135.864,355.957,86.853
-0.078,2.082,-3.133,-108.032,364.075,96.985
0.165,1.887,-2.903,-82.581,366.699,106.140
0.365,1.694,-2.629,-62.500,364.197,110.535
0.523,1.554,-2.342,-47.363,357.788,110.474
0.616,1.432,-2.031,-35.156,348.022,109.497
0.670,1.305,-1.760,-25.208,338.196,109.924
0.716,1.206,-1.492,-17.639,329.285,113.831
0.783,1.100,-1.241,-11.780,318.787,119.507
0.827,0.966,-0.994,-6.836,304.199,124.023
0.846,0.819,-0.770,-3.418,284.912,124.878
0.798,0.663,-0.549,-1.892,261.902,120.605
0.765,0.520,-0.364,-2.075,238.342,113.037
0.736,0.417,-0.197,-3.723,214.478,104.553
0.709,0.331,-0.066,-5.493,190.369,98.083
0.664,0.214,0.002,-6.592,165.894,94.116
0.582,0.095,0.041,-8.423,142.334,90.149
0.478,-0.001,0.058,-11.475,120.605,82.458
0.347,-0.088,0.050,-15.930,101.685,70.129
0.209,-0.156,0.035,-21.301,86.609,55.786
0.091,-0.190,-0.003,-27.100,75.500,42.480
-0.013,-0.177,-0.032,-32.104,67.627,31.189
-0.085,-0.127,-0.057,-34.851,61.890,21.729
-0.128,-0.032,-0.069,-33.875,56.335,13.733
-0.192,0.043,-0.088,-28.198,49.500,8.850
-0.263,0.052,-0.115,-18.311,41.382,7.080
-0.362,0.043,-0.122,-6.958,33.386,4.517
-0.462,-0.004,-0.146,2.502,27.466,-1.160
-0.554,-0.041,-0.153,10.925,23.621,-6.836
-0.650,-0.068,-0.136,17.090,21.301,-11.475
-0.713,-0.106,-0.136,20.691,20.386,-14.587
-0.746,-0.146,-0.141,21.851,19.897,-15.381
-0.775,-0.167,-0.133,20.813,18.921,-14.771
-0.786,-0.191,-0.133,17.639,17.700,-14.526
-0.808,-0.200,-0.124,12.878,16.479,-14.893
-0.834,-0.198,-0.114,7.385,15.259,-15.625
-0.859,-0.168,-0.091,2.380,14.465,-16.907

-0.756,0.806,-1.250,-230.774,-14.282,-41.748
-0.851,0.966,-1.314,-244.629,-10.071,-40.100
-0.947,1.101,-1.399,-255.737,-1.709,-36.194
-1.037,1.215,-1.483,-263.428,10.986,-30.884
-1.158,1.279,-1.513,-268.494,25.879,-25.208
-1.089,1.531,-1.671,-269.836,42.603,-19.104
-1.220,1.656,-1.749,-265.137,54.810,-15.686
-1.311,1.786,-1.839,-253.906,68.298,-12.695
-1.426,1.870,-1.956,-237.427,85.022,-8.728
-1.496,1.936,-2.066,-219.666,105.042,-3.723
-1.534,1.934,-2.177,-202.820,128.540,3.662
-1.487,1.948,-2.324,-189.148,153.076,15.198
-1.463,1.863,-2.471,-179.993,176.025,26.367
-1.384,1.812,-2.643,-177.490,198.914,37.659
-1.327,1.827,-2.776,-181.396,219.238,48.523
-1.306,1.855,-2.885,-187.622,238.525,60.364
-1.150,1.992,-3.025,-192.871,260.437,72.327
-1.014,2.130,-3.089,-191.284,283.203,80.566
-0.812,2.251,-3.143,-179.932,307.373,88.074
-0.562,2.330,-3.205,-158.569,331.421,97.961
-0.357,2.220,-3.189,-132.141,353.333,107.971
-0.115,2.144,-3.118,-104.065,372.070,116.821
0.128,2.016,-2.992,-77.698,388.733,122.314
0.360,1.894,-2.841,-52.917,400.024,126.587
0.538,1.771,-2.630,-31.189,404.968,132.202
0.706,1.656,-2.400,-12.207,404.053,137.451
0.858,1.520,-2.163,4.211,397.583,141.968
0.953,1.330,-1.934,19.043,384.827,146.301
0.979,1.125,-1.720,29.297,368.774,149.231
0.989,0.944,-1.519,34.058,351.013,149.658
0.989,0.794,-1.330,33.936,332.031,148.071
0.935,0.658,-1.151,30.212,311.951,146.667
0.858,0.519,-1.000,23.926,293.579,146.790
0.817,0.407,-0.856,15.442,276.978,146.545
0.788,0.325,-0.718,6.287,260.437,143.860
0.735,0.240,-0.580,-1.282,243.286,139.465
0.671,0.159,-0.460,-7.263,225.220,133.484
0.574,0.109,-0.344,-12.024,206.665,125.671
0.465,0.086,-0.224,-14.709,188.354,116.394
0.374,0.073,-0.132,-13.916,170.959,105.469
0.285,0.068,-0.059,-9.155,153.931,94.238
0.192,0.035,-0.013,-2.197,136.047,83.862
0.091,-0.023,0.020,6.104,119.568,73.792
0.012,-0.074,0.035,14.099,105.530,64.087
-0.047,-0.123,0.049,20.386,94.360,54.016
-0.106,-0.153,0.080,24.353,86.182,44.678
-0.155,-0.180,0.103,26.978,79.407,36.377
-0.219,-0.204,0.120,28.381,73.181,30.029
-0.284,-0.239,0.135,27.893,66.467,24.780
-0.329,-0.275,0.135,26.062,57.495,19.287
-0.390,-0.301,0.124,23.621,45.898,14.038
-0.463,-0.307,0.108,20.447,32.593,8.362
-0.551,-0.277,0.101,16.418,20.386,1.038
-0.615,-0.216,0.089,13.062,10.803,-6.409
-0.688,-0.162,0.072,11.353,4.028,-12.695
-0.760,-0.136,0.049,11.169,0.305,-15.747
-0.807,-0.135,0.031,11.719,0.000,-15.991
-0.817,-0.150,0.005,11.719,1.282,-15.991
-0.812,-0.161,-0.014,10.803,2.075,-16.846
-0.811,-0.139,-0.018,9.155,0.977,-18.982
-0.823,-0.092,-0.017,8.728,-2.075,-21.912
-0.852,-0.060,-0.021,9.644,-6.836,-24.048
-0.903,-0.027,-0.025,11.536,-12.329,-24.902
-0.947,-0.021,-0.026,14.404,-16.174,-25.757
-0.981,-0.041,-0.035,17.395,-18.311,-27.100
-0.997,-0.053,-0.034,19.409,-18.799,-28.992
-1.010,-0.068,-0.038,20.386,-18.738,-31.250
-1.016,-0.074,-0.031,20.081,-18.127,-33.081
-1.002,-0.064,-0.033,18.982,-17.090,-34.485
-0.980,-0.019,-0.031,17.456,-16.541,-35.461
-0.969,0.024,-0.014,17.151,-17.944,-36.011
-0.958,0.045,-0.009,18.250,-20.630,-35.767
-0.959,0.055,-0.003,20.264,-24.292,-34.973
-0.955,0.057,-0.000,22.400,-28.259,-34.729
-0.943,0.049,-0.010,24.353,-31.921,-35.583
-0.942,0.022,-0.027,25.635,-34.851,-37.109
-0.941,-0.002,-0.040,25.696,-37.292,-38.818
-0.919,0.002,-0.053,24.353,-39.063,-41.199
-0.896,0.025,-0.075,22.766,-40.649,-44.128
-0.917,0.050,-0.088,21.423,-42.725,-47.485
-0.938,0.069,-0.101,20.935,-44.250,-50.964
-0.950,0.085,-0.117,21.423,-44.800,-54.016
-0.948,0.115,-0.127,22.827,-44.861,-57.251
-0.928,0.178,-0.129,25.574,-44.678,-60.608
-0.906,0.256,-0.129,31.067,-45.532,-63.232
-0.896,0.310,-0.127,40.894,-47.363,-64.453
-0.888,0.353,-0.125,54.199,-49.438,-66.162
-0.885,0.385,-0.124,69.519,-51.025,-69.702
-0.909,0.403,-0.128,86.243,-51.880,-74.951
-0.917,0.400,-0.143,103.210,-51.636,-81.360
-0.916,0.394,-0.159,119.385,-50.964,-88.013
-0.927,0.381,-0.193,134.460,-50.598,-94.238
-0.947,0.376,-0.217,147.949,-50.110,-100.037
-0.976,0.419,-0.229,160.339,-48.462,-105.713
-1.002,0.492,-0.232,173.462,-45.410,-112.000
-1.006,0.576,-0.229,188.538,-40.588,-117.737
-1.010,0.642,-0.230,205.872,-35.217,-121.155
-1.036,0.677,-0.246,224.854,-29.663,-121.765
-1.066,0.668,-0.260,243.713,-22.888,-121.399
-1.082,0.653,-0.274,261.047,-14.526,-121.338
-1.050,0.617,-0.301,276.489,-4.883,-121.521
-1.016,0.564,-0.330,289.246,4.395,-121.765
-1.012,0.503,-0.326,298.645,13.428,-121.460
-0.999,0.488,-0.318,304.443,22.644,-120.239
-0.987,0.478,-0.308,308.044,32.288,-119.019
-1.000,0.434,-0.277,310.486,42.175,-116.821
-0.989,0.409,-0.241,311.646,52.063,-112.122
-0.951,0.402,-0.204,310.913,61.829,-105.957
-0.911,0.367,-0.171,309.204,70.129,-99.548
-0.887,0.321,-0.125,305.481,76.172,-93.933
-0.848,0.311,-0.094,300.110,81.543,-88.257
-0.813,0.312,-0.062,294.006,85.938,-83.374
-0.776,0.322,-0.030,287.903,89.661,-78.979
-0.779,0.284,0.023,282.898,92.590,-74.402
-0.759,0.271,0.047,278.381,95.642,-67.627
-0.736,0.244,0.099,273.376,98.328,-61.157
-0.698,0.212,0.138,266.907,100.037,-56.213
-0.716,0.127,0.207,258.911,99.548,-53.223
-0.701,0.114,0.246,249.207,98.267,-50.293

-1.078,0.484,-1.353,-239.441,-11.475,-71.472
-1.061,0.830,-1.594,-255.188,-4.639,-64.209
-1.239,0.928,-1.650,-266.663,-0.122,-55.359
-1.359,1.073,-1.757,-274.475,5.249,-44.006
-1.520,1.168,-1.835,-279.968,11.780,-31.616
-1.573,1.390,-2.001,-283.691,20.447,-19.714
-1.780,1.527,-2.008,-284.363,29.297,-9.949
-1.883,1.698,-2.076,-280.212,41.809,-3.113
-1.959,1.826,-2.173,-271.484,60.730,6.287
-1.952,1.906,-2.305,-260.559,83.801,17.578
-1.900,1.962,-2.460,-251.587,109.253,28.320
-1.787,2.034,-2.655,-246.704,134.583,37.476
-1.698,2.109,-2.827,-245.117,158.447,47.058
-1.594,2.265,-2.994,-245.239,182.617,57.129
-1.486,2.391,-3.098,-242.737,208.130,66.833
-1.315,2.499,-3.172,-234.131,234.131,74.463
-1.096,2.515,-3.222,-218.933,261.108,81.604
-0.858,2.469,-3.258,-201.111,287.415,89.172
-0.618,2.357,-3.273,-183.167,312.317,97.290
-0.335,2.221,-3.264,-167.969,335.449,104.004
-0.185,2.198,-3.078,-153.992,356.995,107.178
0.150,2.231,-2.944,-136.169,376.343,109.558
0.378,2.084,-2.733,-114.197,387.695,112.183
0.552,1.972,-2.493,-89.478,390.625,113.953
0.707,1.820,-2.260,-64.575,388.611,114.502
0.842,1.670,-2.015,-42.480,381.409,113.525
0.945,1.494,-1.771,-23.560,369.507,113.342
1.005,1.313,-1.522,-9.155,353.699,114.136
1.042,1.116,-1.287,-0.183,334.595,114.441
1.028,0.903,-1.075,4.272,312.866,113.892
0.981,0.698,-0.879,3.174,289.917,113.159
0.913,0.550,-0.696,-1.953,269.348,112.976
0.919,0.496,-0.533,-8.362,251.404,113.037
0.920,0.484,-0.369,-11.292,231.934,113.281
0.857,0.428,-0.207,-8.301,208.130,111.633
0.791,0.329,-0.084,-0.916,182.922,106.567
0.702,0.168,0.007,9.277,156.799,99.243
0.613,0.005,0.062,18.982,129.822,91.614
0.502,-0.146,0.089,25.330,104.065,83.435
0.336,-0.252,0.106,27.344,81.665,72.754
0.191,-0.343,0.105,24.841,65.918,60.059
0.078,-0.397,0.084,18.372,55.969,49.011
-0.025,-0.427,0.084,9.277,49.927,41.443
-0.074,-0.406,0.072,-1.221,45.898,34.241
-0.099,-0.337,0.050,-11.658,41.138,25.330
-0.174,-0.260,0.032,-20.447,33.325,16.968
-0.291,-0.196,0.015,-26.245,24.292,10.071
-0.411,-0.145,-0.017,-29.724,17.334,3.845
-0.534,-0.090,-0.047,-31.921,13.184,-1.404
-0.633,-0.010,-0.069,-32.593,13.123,-5.188
-0.707,0.070,-0.068,-30.640,16.785,-8.911
-0.730,0.148,-0.076,-25.879,21.423,-11.902
-0.750,0.193,-0.081,-18.188,24.231,-13.977
-0.751,0.214,-0.083,-9.399,24.231,-15.381
-0.773,0.202,-0.092,-1.709,20.325,-15.625
-0.812,0.159,-0.112,4.822,13.672,-13.733
-0.863,0.105,-0.135,8.301,6.653,-11.719
-0.897,0.077,-0.148,7.935,1.404,-11.536
-0.922,0.070,-0.163,4.517,-1.526,-12.695
-0.951,0.086,-0.169,0.610,-2.930,-13.428
-0.950,0.114,-0.171,-3.357,-2.686,-13.672
-0.935,0.166,-0.168,-5.798,-1.709,-13.611
